File: XRD-R=1,5-dried.ASC
  3.020       92
  3.088       76
  3.156       66
  3.224       82
  3.292       81
  3.360       66
  3.428       65
  3.496       81
  3.564       80
  3.632       81
  3.700       85
  3.768       73
  3.836       68
  3.904       96
  3.972       69
  4.040       92
  4.108       80
  4.176       98
  4.244       79
  4.312       77
  4.380       77
  4.448       80
  4.516       88
  4.584       85
  4.652       96
  4.720       87
  4.788       89
  4.856       93
  4.924       86
  4.992       96
  5.060       91
  5.128      107
  5.196       90
  5.264       98
  5.332       98
  5.400       91
  5.468       89
  5.536       86
  5.604       95
  5.672       91
  5.740       94
  5.808       89
  5.876       97
  5.944       92
  6.012       95
  6.080       91
  6.148       96
  6.216       96
  6.284      106
  6.352       92
  6.420      104
  6.488       89
  6.556       85
  6.624      102
  6.692      105
  6.760       92
  6.828      107
  6.896       90
  6.964       87
  7.032      107
  7.100       97
  7.168       86
  7.236      105
  7.304      103
  7.372       98
  7.440      110
  7.508      102
  7.576      107
  7.644      109
  7.712      127
  7.780      131
  7.848      161
  7.916      155
  7.984      165
  8.052      156
  8.120      157
  8.188      124
  8.256      112
  8.324      127
  8.392      118
  8.460      116
  8.528      110
  8.596      115
  8.664      117
  8.732      155
  8.800      202
  8.868      307
  8.936      444
  9.004      354
  9.072      212
  9.140      172
  9.208      136
  9.276      118
  9.344      116
  9.412      117
  9.480      100
  9.548       90
  9.616       93
  9.684      106
  9.752      103
  9.820      106
  9.888       96
  9.956       88
 10.024      103
 10.092       96
 10.160      103
 10.228       97
 10.296      104
 10.364       78
 10.432      107
 10.500       91
 10.568       96
 10.636      104
 10.704      104
 10.772       99
 10.840       98
 10.908       94
 10.976      100
 11.044      102
 11.112      111
 11.180      104
 11.248      100
 11.316       95
 11.384      114
 11.452      117
 11.520      100
 11.588      110
 11.656      129
 11.724      127
 11.792      183
 11.860      225
 11.928      141
 11.996      103
 12.064      138
 12.132      157
 12.200      133
 12.268      116
 12.336       94
 12.404      105
 12.472       89
 12.540      100
 12.608       96
 12.676      103
 12.744      106
 12.812       94
 12.880      134
 12.948      108
 13.016      132
 13.084      119
 13.152      149
 13.220      147
 13.288      124
 13.356      107
 13.424      109
 13.492      106
 13.560      117
 13.628       95
 13.696      104
 13.764      104
 13.832      104
 13.900      102
 13.968      106
 14.036      100
 14.104      110
 14.172      102
 14.240       97
 14.308      111
 14.376      109
 14.444      116
 14.512      111
 14.580      102
 14.648       93
 14.716      106
 14.784      119
 14.852      123
 14.920      109
 14.988      118
 15.056      127
 15.124      121
 15.192      110
 15.260      125
 15.328      122
 15.396      114
 15.464      113
 15.532      118
 15.600      123
 15.668      117
 15.736      131
 15.804      129
 15.872      152
 15.940      162
 16.008      141
 16.076      159
 16.144      164
 16.212      160
 16.280      140
 16.348      145
 16.416      161
 16.484      125
 16.552      137
 16.620      167
 16.688      143
 16.756      135
 16.824      136
 16.892      124
 16.960      132
 17.028      131
 17.096      128
 17.164      129
 17.232      131
 17.300      144
 17.368      130
 17.436      125
 17.504      127
 17.572      155
 17.640      158
 17.708      133
 17.776      139
 17.844      133
 17.912      159
 17.980      156
 18.048      167
 18.116      150
 18.184      166
 18.252      157
 18.320      177
 18.388      166
 18.456      170
 18.524      165
 18.592      192
 18.660      198
 18.728      172
 18.796      192
 18.864      194
 18.932      687
 19.000      415
 19.068      185
 19.136      186
 19.204      172
 19.272      151
 19.340      140
 19.408      156
 19.476      146
 19.544      142
 19.612      155
 19.680      129
 19.748      150
 19.816      171
 19.884      145
 19.952      138
 20.020      142
 20.088      146
 20.156      135
 20.224      146
 20.292      188
 20.360      144
 20.428      151
 20.496      180
 20.564      161
 20.632      125
 20.700      115
 20.768      125
 20.836      142
 20.904      135
 20.972      117
 21.040      124
 21.108      138
 21.176      121
 21.244      140
 21.312      126
 21.380      116
 21.448      132
 21.516      121
 21.584      121
 21.652      134
 21.720      122
 21.788      116
 21.856      132
 21.924      135
 21.992      126
 22.060      120
 22.128      124
 22.196      136
 22.264      125
 22.332      156
 22.400      158
 22.468      194
 22.536      143
 22.604      157
 22.672      118
 22.740      126
 22.808      123
 22.876      144
 22.944      142
 23.012      194
 23.080      252
 23.148      158
 23.216      143
 23.284      155
 23.352      128
 23.420      128
 23.488      197
 23.556      266
 23.624      235
 23.692      181
 23.760      168
 23.828      208
 23.896      205
 23.964      181
 24.032      180
 24.100      199
 24.168      240
 24.236      323
 24.304      273
 24.372      233
 24.440      219
 24.508      169
 24.576      174
 24.644      158
 24.712      144
 24.780      145
 24.848      142
 24.916      147
 24.984      141
 25.052      141
 25.120      148
 25.188      152
 25.256      134
 25.324      153
 25.392      140
 25.460      127
 25.528      159
 25.596      137
 25.664      134
 25.732      124
 25.800      138
 25.868      135
 25.936      122
 26.004      129
 26.072      144
 26.140      126
 26.208      141
 26.276      141
 26.344      163
 26.412      129
 26.480      145
 26.548      167
 26.616      235
 26.684      232
 26.752      170
 26.820      157
 26.888      156
 26.956      146
 27.024      161
 27.092      174
 27.160      199
 27.228      248
 27.296      271
 27.364      283
 27.432      347
 27.500      403
 27.568      277
 27.636      234
 27.704      184
 27.772      159
 27.840      185
 27.908      463
 27.976      574
 28.044      219
 28.112      162
 28.180      152
 28.248      163
 28.316      151
 28.384      152
 28.452      171
 28.520      146
 28.588      145
 28.656      175
 28.724      172
 28.792      166
 28.860      355
 28.928      558
 28.996      177
 29.064      149
 29.132      146
 29.200      148
 29.268      144
 29.336      146
 29.404      143
 29.472      156
 29.540      143
 29.608      163
 29.676      142
 29.744      156
 29.812      144
 29.880      154
 29.948      154
 30.016      158
 30.084      156
 30.152      139
 30.220      146
 30.288      150
 30.356      151
 30.424      140
 30.492      151
 30.560      154
 30.628      145
 30.696      170
 30.764      181
 30.832      178
 30.900      192
 30.968      218
 31.036      243
 31.104      235
 31.172      259
 31.240      297
 31.308      259
 31.376      195
 31.444      208
 31.512      255
 31.580      222
 31.648      238
 31.716      314
 31.784      355
 31.852      365
 31.920      348
 31.988      823
 32.056     1485
 32.124      517
 32.192      347
 32.260      269
 32.328      212
 32.396      174
 32.464      188
 32.532      177
 32.600      216
 32.668      186
 32.736      194
 32.804      206
 32.872      235
 32.940      203
 33.008      208
 33.076      201
 33.144      183
 33.212      207
 33.280      210
 33.348      201
 33.416      220
 33.484      255
 33.552      355
 33.620      296
 33.688      457
 33.756     1054
 33.824      653
 33.892      574
 33.960      534
 34.028      371
 34.096      282
 34.164      228
 34.232      222
 34.300      207
 34.368      188
 34.436      186
 34.504      191
 34.572      196
 34.640      191
 34.708      170
 34.776      183
 34.844      191
 34.912      183
 34.980      186
 35.048      189
 35.116      199
 35.184      175
 35.252      204
 35.320      204
 35.388      210
 35.456      186
 35.524      223
 35.592      264
 35.660      255
 35.728      246
 35.796      237
 35.864      281
 35.932      266
 36.000      281
 36.068      302
 36.136      369
 36.204      505
 36.272      498
 36.340      372
 36.408      367
 36.476      396
 36.544      372
 36.612      362
 36.680      283
 36.748      276
 36.816      273
 36.884      248
 36.952      241
 37.020      236
 37.088      246
 37.156      248
 37.224      212
 37.292      225
 37.360      239
 37.428      202
 37.496      211
 37.564      216
 37.632      198
 37.700      179
 37.768      201
 37.836      210
 37.904      200
 37.972      194
 38.040      221
 38.108      224
 38.176      262
 38.244      326
 38.312      392
 38.380      389
 38.448      364
 38.516      602
 38.584      437
 38.652      253
 38.720      206
 38.788      197
 38.856      196
 38.924      178
 38.992      199
 39.060      181
 39.128      185
 39.196      181
 39.264      200
 39.332      197
 39.400      192
 39.468      189
 39.536      217
 39.604      199
 39.672      199
 39.740      189
 39.808      198
 39.876      203
 39.944      193
 40.012      203
 40.080      207
 40.148      205
 40.216      244
 40.284      208
 40.352      228
 40.420      202
 40.488      249
 40.556      254
 40.624      278
 40.692      299
 40.760      218
 40.828      207
 40.896      200
 40.964      206
 41.032      202
 41.100      213
 41.168      208
 41.236      209
 41.304      182
 41.372      200
 41.440      194
 41.508      195
 41.576      205
 41.644      189
 41.712      203
 41.780      229
 41.848      195
 41.916      209
 41.984      202
 42.052      176
 42.120      178
 42.188      222
 42.256      200
 42.324      197
 42.392      192
 42.460      174
 42.528      201
 42.596      196
 42.664      197
 42.732      189
 42.800      202
 42.868      181
 42.936      221
 43.004      193
 43.072      200
 43.140      196
 43.208      201
 43.276      220
 43.344      230
 43.412      209
 43.480      213
 43.548      222
 43.616      254
 43.684      223
 43.752      229
 43.820      274
 43.888      289
 43.956      262
 44.024      232
 44.092      203
 44.160      207
 44.228      200
 44.296      238
 44.364      258
 44.432      260
 44.500      271
 44.568      252
 44.636      232
 44.704      224
 44.772      226
 44.840      224
 44.908      201
 44.976      215
 45.044      224
 45.112      211
 45.180      220
 45.248      207
 45.316      198
 45.384      220
 45.452      220
 45.520      199
 45.588      215
 45.656      230
 45.724      243
 45.792      250
 45.860      244
 45.928      266
 45.996      238
 46.064      258
 46.132      229
 46.200      235
 46.268      240
 46.336      229
 46.404      264
 46.472      256
 46.540      238
 46.608      263
 46.676      312
 46.744      311
 46.812      296
 46.880      295
 46.948      268
 47.016      253
 47.084      217
 47.152      234
 47.220      280
 47.288      240
 47.356      221
 47.424      199
 47.492      212
 47.560      205
 47.628      211
 47.696      220
 47.764      227
 47.832      214
 47.900      266
 47.968      255
 48.036      241
 48.104      235
 48.172      230
 48.240      245
 48.308      304
 48.376      252
 48.444      268
 48.512      321
 48.580      377
 48.648      550
 48.716      913
 48.784      481
 48.852      309
 48.920      296
 48.988      297
 49.056      288
 49.124      264
 49.192      282
 49.260      283
 49.328      297
 49.396      376
 49.464      324
 49.532      298
 49.600      299
 49.668      305
 49.736      331
 49.804      333
 49.872      351
 49.940      331
 50.008      326
 50.076      283
 50.144      272
 50.212      281
 50.280      282
 50.348      274
 50.416      270
 50.484      281
 50.552      331
 50.620      362
 50.688      310
 50.756      262
 50.824      255
 50.892      269
 50.960      247
 51.028      244
 51.096      275
 51.164      241
 51.232      272
 51.300      273
 51.368      253
 51.436      250
 51.504      280
 51.572      285
 51.640      315
 51.708      365
 51.776      353
 51.844      360
 51.912      328
 51.980      286
 52.048      285
 52.116      269
 52.184      258
 52.252      252
 52.320      253
 52.388      259
 52.456      239
 52.524      263
 52.592      238
 52.660      266
 52.728      232
 52.796      233
 52.864      233
 52.932      257
 53.000      238
 53.068      236
 53.136      281
 53.204      272
 53.272      254
 53.340      266
 53.408      249
 53.476      256
 53.544      296
 53.612      297
 53.680      332
 53.748      323
 53.816      276
 53.884      256
 53.952      259
 54.020      299
 54.088      261
 54.156      238
 54.224      244
 54.292      303
 54.360      345
 54.428      471
 54.496      607
 54.564      384
 54.632      302
 54.700      278
 54.768      272
 54.836      257
 54.904      263
 54.972      261
 55.040      356
 55.108      445
 55.176      444
 55.244      378
 55.312      347
 55.380      341
 55.448      337
 55.516      339
 55.584      319
 55.652      379
 55.720      382
 55.788      351
 55.856      290
 55.924      296
 55.992      380
 56.060      395
 56.128      348
 56.196      359
 56.264      390
 56.332      469
 56.400      427
 56.468      357
 56.536      338
 56.604      307
 56.672      278
 56.740      296
 56.808      290
 56.876      320
 56.944      339
 57.012      338
 57.080      359
 57.148      381
 57.216      458
 57.284      467
 57.352      371
 57.420      316
 57.488      320
 57.556      297
 57.624      289
 57.692      321
 57.760      326
 57.828      314
 57.896      321
 57.964      302
 58.032      269
 58.100      291
 58.168      292
 58.236      326
 58.304      289
 58.372      305
 58.440      307
 58.508      299
 58.576      295
 58.644      346
 58.712      329
 58.780      330
 58.848      347
 58.916      366
 58.984      364
 59.052      335
 59.120      352
 59.188      363
 59.256      430
 59.324      453
 59.392      626
 59.460      426
 59.528      383
 59.596      322
 59.664      334
 59.732      320
 59.800      337
 59.868      331
 59.936      331
 60.004      294
 60.072      289
 60.140      306
 60.208      303
 60.276      294
 60.344      261
 60.412      289
 60.480      290
 60.548      271
 60.616      293
 60.684      286
 60.752      263
 60.820      277
 60.888      277
 60.956      296
 61.024      283
 61.092      286
 61.160      344
 61.228      317
 61.296      291
 61.364      255
 61.432      263
 61.500      256
 61.568      272
 61.636      260
 61.704      270
 61.772      333
 61.840      429
 61.908      313
 61.976      247
 62.044      291
 62.112      256
 62.180      267
 62.248      288
 62.316      258
 62.384      275
 62.452      269
 62.520      280
 62.588      270
 62.656      288
 62.724      280
 62.792      294
 62.860      282
 62.928      296
 62.996      317
 63.064      296
 63.132      306
 63.200      316
 63.268      308
 63.336      319
 63.404      312
 63.472      284
 63.540      270
 63.608      301
 63.676      290
 63.744      275
 63.812      308
 63.880      278
 63.948      261
 64.016      287
 64.084      289
 64.152      303
 64.220      252
 64.288      290
 64.356      275
 64.424      276
 64.492      284
 64.560      289
 64.628      308
 64.696      307
 64.764      294
 64.832      288
 64.900      291
 64.968      288
 65.036      330
 65.104      355
 65.172      428
 65.240      396
 65.308      309
 65.376      319
 65.444      310
 65.512      284
 65.580      299
 65.648      308
 65.716      300
 65.784      272
 65.852      280
 65.920      306
 65.988      277
 66.056      268
 66.124      308
 66.192      300
 66.260      316
 66.328      317
 66.396      301
 66.464      304
 66.532      328
 66.600      323
 66.668      329
 66.736      344
 66.804      300
 66.872      337
 66.940      312
 67.008      334
 67.076      299
 67.144      321
 67.212      313
 67.280      324
 67.348      352
 67.416      448
 67.484      381
 67.552      378
 67.620      340
 67.688      358
 67.756      361
 67.824      341
 67.892      339
 67.960      366
 68.028      375
 68.096      386
 68.164      344
 68.232      370
 68.300      356
 68.368      339
 68.436      337
 68.504      307
 68.572      304
 68.640      321
 68.708      345
 68.776      342
 68.844      348
 68.912      331
 68.980      298
 69.048      333
 69.116      314
 69.184      330
 69.252      336
 69.320      345
 69.388      327
 69.456      313
 69.524      295
 69.592      300
 69.660      289
 69.728      298
 69.796      317
 69.864      301
 69.932      311
 70.000      316
 70.068      305
 70.136      309
 70.204      311
 70.272      292
 70.340      285
 70.408      331
 70.476      309
 70.544      296
 70.612      295
 70.680      308
 70.748      304
 70.816      313
 70.884      298
 70.952      312
 71.020      311
 71.088      375
 71.156      405
 71.224      303
 71.292      329
 71.360      313
 71.428      310
 71.496      308
 71.564      316
 71.632      308
 71.700      340
 71.768      291
 71.836      327
 71.904      293
 71.972      318
 72.040      285
 72.108      268
 72.176      302
 72.244      318
 72.312      325
 72.380      335
 72.448      351
 72.516      317
 72.584      331
 72.652      307
 72.720      315
 72.788      377
 72.856      432
 72.924      402
 72.992      374
 73.060      308
 73.128      329
 73.196      299
 73.264      317
 73.332      296
 73.400      316
 73.468      319
 73.536      317
 73.604      298
 73.672      292
 73.740      323
 73.808      306
 73.876      326
 73.944      432
 74.012      404
 74.080      336
 74.148      328
 74.216      334
 74.284      314
 74.352      313
 74.420      309
 74.488      303
 74.556      315
 74.624      308
 74.692      289
 74.760      327
 74.828      329
 74.896      311
 74.964      307
 75.032      286
 75.100      306
 75.168      289
 75.236      286
 75.304      305
 75.372      334
 75.440      363
 75.508      326
 75.576      308
 75.644      324
 75.712      309
 75.780      330
 75.848      303
 75.916      333
 75.984      307
 76.052      304
 76.120      312
 76.188      330
 76.256      312
 76.324      309
 76.392      303
 76.460      314
 76.528      348
 76.596      318
 76.664      329
 76.732      345
 76.800      330
 76.868      303
 76.936      362
 77.004      314
 77.072      305
 77.140      335
 77.208      378
 77.276      365
 77.344      331
 77.412      318
 77.480      313
 77.548      325
 77.616      341
 77.684      317
 77.752      323
 77.820      330
 77.888      320
 77.956      350
 78.024      307
 78.092      315
 78.160      340
 78.228      310
 78.296      311
 78.364      329
 78.432      321
 78.500      316
 78.568      336
 78.636      343
 78.704      368
 78.772      383
 78.840      328
 78.908      346
 78.976      357
 79.044      328
 79.112      325
 79.180      343
 79.248      331
 79.316      354
 79.384      312
 79.452      318
 79.520      344
 79.588      310
 79.656      342
 79.724      335
 79.792      335
 79.860      342
 79.928      346
 79.979      351