File: XRD_R=2_wet.ASC
6.01036 62.5002 5.59018
6.06136 61.7515 5.5566
6.11236 66.1007 5.74894
6.16336 51.7656 5.08751
6.21436 59.9029 5.47279
6.26536 63.9267 5.65361
6.31636 58.5765 5.41186
6.36736 59.4027 5.4499
6.41836 61.1468 5.52932
6.46936 59.5671 5.45743
6.52036 64.1424 5.66314
6.57136 58.5747 5.41178
6.62236 62.3472 5.58333
6.67336 54.9141 5.23995
6.72436 54.9825 5.24321
6.77536 54.7789 5.23349
6.82636 57.3164 5.35333
6.87736 62.3465 5.5833
6.92836 69.4951 5.8947
6.97936 72.7727 6.03211
7.03036 72.597 6.02482
7.08136 66.2656 5.75611
7.13236 61.2106 5.53221
7.18336 60.7688 5.5122
7.23436 63.9881 5.65633
7.28536 57.0917 5.34283
7.33636 68.3243 5.84484
7.38736 58.0994 5.38978
7.43836 58.9161 5.42753
7.48936 66.997 5.78779
7.54036 69.7201 5.90424
7.59136 61.9445 5.56527
7.64236 66.0242 5.74561
7.69336 63.5508 5.63697
7.74436 63.0451 5.6145
7.79536 58.9162 5.42753
7.84636 73.5621 6.06474
7.89736 62.2536 5.57914
7.94836 63.6368 5.64078
7.99936 61.1183 5.52803
8.05036 62.7435 5.60105
8.10136 62.8118 5.6041
8.15236 69.2922 5.88609
8.20336 77.2416 6.21456
8.25436 65.9825 5.7438
8.30536 76.5081 6.18498
8.35636 69.0808 5.87711
8.40736 70.5157 5.93783
8.45836 66.2682 5.75622
8.50936 67.4293 5.80643
8.56036 70.4294 5.9342
8.61136 68.8307 5.86646
8.66236 68.5899 5.85619
8.71336 64.1492 5.66345
8.76436 66.4101 5.76238
8.81536 71.2763 5.96977
8.86636 63.6818 5.64277
8.91736 76.3408 6.17822
8.96836 67.0127 5.78847
9.01936 70.6513 5.94354
9.07036 63.4299 5.6316
9.12136 73.4047 6.05825
9.17236 76.1411 6.17014
9.22336 69.7398 5.90507
9.27436 74.486 6.1027
9.32536 69.5001 5.89492
9.37636 70.8429 5.95159
9.42736 77.473 6.22386
9.47836 78.1973 6.25289
9.52936 65.0766 5.70424
9.58036 74.5001 6.10328
9.63136 66.5791 5.76971
9.68236 83.3201 6.45446
9.73336 81.23 6.37299
9.78436 84.1919 6.48814
9.83536 83.7123 6.46963
9.88636 70.4715 5.93597
9.93736 85.4603 6.53683
9.98836 84.1134 6.48511
10.0394 76.5216 6.18553
10.0904 78.447 6.26287
10.1414 84.1873 6.48796
10.1924 82.6248 6.42747
10.2434 83.5622 6.46383
10.2944 83.8318 6.47425
10.3454 80.3117 6.33687
10.3964 81.6273 6.38856
10.4474 77.3401 6.21852
10.4984 79.7713 6.31551
10.5494 79.4856 6.30419
10.6004 90.9724 6.74435
10.6514 76.9915 6.20449
10.7024 81.7234 6.39232
10.7534 82.1148 6.40761
10.8044 92.8181 6.81242
10.8554 75.9622 6.16288
10.9064 78.904 6.28108
10.9574 91.1944 6.75257
11.0084 78.5355 6.2664
11.0594 86.9085 6.59198
11.1104 98.0861 7.00307
11.1614 86.179 6.56426
11.2124 92.5612 6.80298
11.2634 84.5247 6.50095
11.3144 86.9222 6.5925
11.3654 84.4426 6.49779
11.4164 88.9659 6.66956
11.4674 93.585 6.8405
11.5184 82.387 6.41822
11.5694 99.2667 7.04509
11.6204 94.1653 6.86168
11.6714 94.7673 6.88358
11.7224 90.9292 6.74274
11.7734 88.7145 6.66012
11.8244 98.1823 7.00651
11.8754 89.2747 6.68112
11.9264 99.735 7.06169
11.9774 107.065 7.3166
12.0284 95.9716 6.92718
12.0794 81.6683 6.39016
12.1304 102.371 7.15442
12.1814 87.6954 6.62176
12.2324 95.5294 6.9112
12.2834 104.377 7.22418
12.3344 101.009 7.10666
12.3854 99.0519 7.03747
12.4364 93.1464 6.82446
12.4874 100.957 7.10483
12.5384 98.3077 7.01098
12.5894 95.636 6.91506
12.6404 103.098 7.17975
12.6914 101.42 7.1211
12.7424 93.4744 6.83646
12.7934 95.5222 6.91094
12.8444 104.636 7.23312
12.8954 121.452 7.79268
12.9464 94.5847 6.87694
12.9974 107.45 7.32972
13.0484 99.4942 7.05316
13.0994 104.445 7.22653
13.1504 105.832 7.27435
13.2014 107.481 7.33079
13.2524 103.401 7.1903
13.3034 109.676 7.40527
13.3544 107.18 7.32053
13.4054 109.453 7.39773
13.4564 113.791 7.54291
13.5074 116.239 7.62362
13.5584 110.658 7.43834
13.6094 114.146 7.55468
13.6604 116.513 7.6326
13.7114 108.626 7.36974
13.7624 114.058 7.55175
13.8134 101.8 7.13443
13.8644 119.885 7.74226
13.9154 124.05 7.8756
13.9664 125.114 7.90929
14.0174 112.704 7.5068
14.0684 99.9908 7.07074
14.1194 110.036 7.41741
14.1704 115.313 7.59318
14.2214 119.247 7.72164
14.2724 113.626 7.53745
14.3234 122.456 7.82484
14.3744 114.507 7.56661
14.4254 130.458 8.07644
14.4764 117.979 7.68046
14.5274 116.529 7.63313
14.5784 119.81 7.73982
14.6294 122.958 7.84086
14.6804 126.623 7.95687
14.7314 128.771 8.02406
14.7824 129.814 8.05649
14.8334 118.977 7.71288
14.8844 137.17 8.28159
14.9354 154.914 8.80096
14.9864 138.081 8.30906
15.0374 130.297 8.07146
15.0884 142.5 8.44098
15.1394 134.693 8.20648
15.1904 136.294 8.25513
15.2414 129.654 8.05153
15.2924 138.231 8.31356
15.3434 139.767 8.35962
15.3944 129.968 8.06127
15.4454 139.233 8.34365
15.4964 160.755 8.96534
15.5474 135.852 8.24173
15.5984 150.383 8.67132
15.6494 154.788 8.79738
15.7004 149.607 8.64891
15.7514 155.401 8.8148
15.8024 139.333 8.34666
15.8534 149.538 8.64689
15.9044 166.584 9.12643
15.9554 145.041 8.5159
16.0064 163.147 9.0318
16.0574 151.203 8.6949
16.1084 162.888 9.02463
16.1594 160.408 8.95567
16.2104 161.792 8.99421
16.2614 173.255 9.30739
16.3124 165.872 9.10692
16.3634 178.826 9.45584
16.4144 179.872 9.48347
16.4654 186.412 9.65434
16.5164 162.977 9.0271
16.5674 190.313 9.75482
16.6184 184.714 9.61024
16.6694 171.08 9.24879
16.7204 186.947 9.66816
16.7714 196.92 9.9227
16.8224 181.119 9.51629
16.8734 179.435 9.47194
16.9244 200.227 10.0057
16.9754 192.862 9.81992
17.0264 206.955 10.1724
17.0774 190.49 9.75934
17.1284 210.164 10.251
17.1794 219.892 10.4855
17.2304 237.893 10.9063
17.2814 212.216 10.3009
17.3324 214.738 10.3619
17.3834 228.649 10.6923
17.4344 223.125 10.5623
17.4854 226.676 10.646
17.5364 232.773 10.7883
17.5874 228.257 10.6831
17.6384 245.212 11.0728
17.6894 245.992 11.0904
17.7404 243.006 11.0228
17.7914 258.802 11.3755
17.8424 294.999 12.1449
17.8934 281.638 11.8667
17.9444 268.841 11.594
17.9954 269.95 11.6179
18.0464 287.461 11.9888
18.0974 297.288 12.192
18.1484 332.322 12.8903
18.1994 354.26 13.309
18.2504 374.44 13.6828
18.3014 424.789 14.5738
18.3524 504.616 15.8842
18.4034 593.181 17.2218
18.4544 687.372 18.5388
18.5054 806.626 20.0827
18.5564 901.188 21.2272
18.6074 1079.18 23.2291
18.6584 1151.53 23.9951
18.7094 1255.58 25.0558
18.7604 1241.64 24.9162
18.8114 1251.42 25.0142
18.8624 1169.1 24.1775
18.9134 1048.95 22.9015
18.9644 960.388 21.9133
19.0154 833.327 20.4123
19.0664 692.349 18.6058
19.1174 601.17 17.3374
19.1684 521.717 16.1511
19.2194 474.775 15.4074
19.2704 434.463 14.7388
19.3214 389.865 13.9618
19.3724 403.07 14.1963
19.4234 390.339 13.9703
19.4744 373.224 13.6606
19.5254 374.661 13.6869
19.5764 395.141 14.056
19.6274 363.967 13.4901
19.6784 370.664 13.6137
19.7294 358.73 13.3927
19.7804 357.602 13.3716
19.8314 392.458 14.0082
19.8824 370.688 13.6141
19.9334 378.086 13.7493
19.9844 367.07 13.5475
20.0354 373.211 13.6604
20.0864 372.138 13.6407
20.1374 357.732 13.3741
20.1884 378.918 13.7644
20.2394 375.181 13.6964
20.2904 373.562 13.6668
20.3414 373.827 13.6716
20.3924 379.588 13.7766
20.4434 375.688 13.7056
20.4944 374.208 13.6786
20.5454 383.048 13.8392
20.5964 384.676 13.8686
20.6474 396.912 14.0874
20.6984 365.356 13.5158
20.7494 387.849 13.9257
20.8004 375.7 13.7058
20.8514 384.937 13.8733
20.9024 390.495 13.9731
20.9534 370.882 13.6177
21.0044 385.798 13.8888
21.0554 384.618 13.8676
21.1064 385.172 13.8775
21.1574 387.979 13.928
21.2084 386.132 13.8948
21.2594 383.973 13.8559
21.3104 385.633 13.8858
21.3614 365.196 13.5129
21.4124 385.479 13.8831
21.4634 365.785 13.5238
21.5144 350.186 13.2323
21.5654 371.15 13.6226
21.6164 390.896 13.9803
21.6674 374.376 13.6817
21.7184 389.866 13.9618
21.7694 385.015 13.8747
21.8204 403.081 14.1965
21.8714 367.502 13.5555
21.9224 364.668 13.5031
21.9734 363.745 13.486
22.0244 366.051 13.5287
22.0754 364.155 13.4936
22.1264 354.514 13.3138
22.1774 360.22 13.4205
22.2284 358.902 13.3959
22.2794 335.908 12.9597
22.3304 348.204 13.1948
22.3814 353.407 13.293
22.4324 328.188 12.8099
22.4834 352.224 13.2707
22.5344 364.399 13.4981
22.5854 340.319 13.0445
22.6364 380.737 13.7974
22.6874 333.646 12.916
22.7384 337.545 12.9912
22.7894 343.845 13.1119
22.8404 327.652 12.7995
22.8914 348.522 13.2008
22.9424 329.522 12.8359
22.9934 352.91 13.2836
23.0444 331.956 12.8832
23.0954 325.019 12.7479
23.1464 331.076 12.8662
23.1974 332.965 12.9028
23.2484 318.203 12.6135
23.2994 324.379 12.7354
23.3504 314.715 12.5442
23.4014 327.719 12.8008
23.4524 320.167 12.6524
23.5034 313.182 12.5136
23.5544 346.584 13.164
23.6054 308.483 12.4194
23.6564 294.757 12.14
23.7074 313.899 12.5279
23.7584 334.177 12.9263
23.8094 302.935 12.3072
23.8604 328.393 12.8139
23.9114 301.982 12.2878
23.9624 304.719 12.3434
24.0134 302.859 12.3057
24.0644 312.786 12.5057
24.1154 304.574 12.3405
24.1664 314.887 12.5477
24.2174 298.223 12.2111
24.2684 283.124 11.898
24.3194 302.563 12.2997
24.3704 296.198 12.1696
24.4214 287.988 11.9998
24.4724 304.352 12.336
24.5234 283.396 11.9037
24.5744 287.567 11.991
24.6254 290.22 12.0462
24.6764 276.383 11.7555
24.7274 296.167 12.169
24.7784 282.417 11.8831
24.8294 303.657 12.3219
24.8804 288.784 12.0163
24.9314 273.445 11.6928
24.9824 285.879 11.9557
25.0334 284.195 11.9205
25.0844 286.386 11.9663
25.1354 275.235 11.731
25.1864 274.093 11.7067
25.2374 266.483 11.543
25.2884 272.142 11.6649
25.3394 282.72 11.8895
25.3904 278.323 11.7967
25.4414 292.375 12.0908
25.4924 264.215 11.4938
25.5434 257.574 11.3484
25.5944 273.671 11.6977
25.6454 257.03 11.3364
25.6964 261.598 11.4367
25.7474 273.987 11.7044
25.7984 267.263 11.5599
25.8494 261.967 11.4448
25.9004 266.445 11.5422
25.9514 285.484 11.9475
26.0024 274.538 11.7162
26.0534 270.3 11.6254
26.1044 263.893 11.4868
26.1554 271.086 11.6423
26.2064 289.275 12.0265
26.2574 262.408 11.4544
26.3084 264.537 11.5008
26.3594 277.095 11.7706
26.4104 260.156 11.4052
26.4614 260.311 11.4086
26.5124 254.955 11.2906
26.5634 254.568 11.282
26.6144 246.254 11.0963
26.6654 264.566 11.5014
26.7164 285.009 11.9375
26.7674 263.258 11.473
26.8184 246.094 11.0927
26.8694 267.722 11.5698
26.9204 270.634 11.6326
26.9714 250.527 11.1921
27.0224 273.382 11.6915
27.0734 270.673 11.6334
27.1244 271.761 11.6568
27.1754 262.409 11.4545
27.2264 253.674 11.2622
27.2774 257.787 11.3531
27.3284 260.028 11.4024
27.3794 256.755 11.3304
27.4304 239.687 10.9473
27.4814 258.094 11.3599
27.5324 262.744 11.4618
27.5834 257.508 11.347
27.6344 257.004 11.3359
27.6854 281.045 11.8542
27.7364 255.102 11.2939
27.7874 247.094 11.1152
27.8384 260.025 11.4023
27.8894 249.695 11.1735
27.9404 258.591 11.3708
27.9914 249.367 11.1662
28.0424 256.442 11.3235
28.0934 242.596 11.0135
28.1444 247.326 11.1204
28.1954 249.859 11.1772
28.2464 239.599 10.9453
28.2974 245.529 11.0799
28.3484 248.609 11.1492
28.3994 250.855 11.1994
28.4504 260.47 11.4121
28.5014 238.49 10.9199
28.5524 257.033 11.3365
28.6034 260.477 11.4122
28.6544 282.977 11.8949
28.7054 253.789 11.2647
28.7564 237.542 10.8982
28.8074 246.314 11.0976
28.8584 244.24 11.0508
28.9094 253.058 11.2485
28.9604 240.35 10.9624
29.0114 263.685 11.4823
29.0624 234.916 10.8378
29.1134 258.759 11.3745
29.1644 264.953 11.5098
29.2154 240.315 10.9616
29.2664 247.455 11.1233
29.3174 242.549 11.0125
29.3684 247.103 11.1154
29.4194 248.625 11.1496
29.4704 231.426 10.757
29.5214 232.323 10.7778
29.5724 245.531 11.08
29.6234 234.501 10.8282
29.6744 244.808 11.0636
29.7254 229.606 10.7146
29.7764 245.934 11.089
29.8274 229.503 10.7122
29.8784 246.456 11.1008
29.9294 254.666 11.2842
29.9804 253.238 11.2525
30.0314 237.227 10.891
30.0824 249.073 11.1596
30.1334 250.892 11.2003
30.1844 252.761 11.2419
30.2354 268.1 11.578
30.2864 239.814 10.9502
30.3374 238.773 10.9264
30.3884 239.614 10.9456
30.4394 241.595 10.9908
30.4904 237.867 10.9057
30.5414 245.194 11.0723
30.5924 230.144 10.7272
30.6434 241.814 10.9958
30.6944 268.613 11.5891
30.7454 240.431 10.9643
30.7964 245.437 11.0778
30.8474 269.575 11.6098
30.8984 244.761 11.0626
30.9494 256.266 11.3196
31.0004 300.126 12.25
31.0514 405.422 14.2377
31.1024 551.289 16.6025
31.1534 465.946 15.2635
31.2044 334.99 12.942
31.2554 280.1 11.8343
31.3064 248.806 11.1536
31.3574 281.911 11.8725
31.4084 265.331 11.518
31.4594 243.731 11.0393
31.5104 251.678 11.2178
31.5614 243.752 11.0397
31.6124 232.903 10.7913
31.6634 243.454 11.033
31.7144 254.02 11.2699
31.7654 239.223 10.9367
31.8164 239.334 10.9392
31.8674 253.824 11.2655
31.9184 249.995 11.1802
31.9694 226.605 10.6444
32.0204 258.371 11.366
32.0714 246.892 11.1106
32.1224 246.601 11.1041
32.1734 250.523 11.192
32.2244 240.752 10.9716
32.2754 246.405 11.0997
32.3264 266.037 11.5334
32.3774 244.452 11.0556
32.4284 234.279 10.8231
32.4794 249.566 11.1706
32.5304 224.018 10.5834
32.5814 274.349 11.7122
32.6324 233.558 10.8064
32.6834 232.091 10.7725
32.7344 262.678 11.4603
32.7854 257.555 11.348
32.8364 253.695 11.2627
32.8874 251.487 11.2135
32.9384 253.567 11.2598
32.9894 243.983 11.045
33.0404 235.608 10.8538
33.0914 262.404 11.4543
33.1424 239.961 10.9536
33.1934 248.514 11.1471
33.2444 265.61 11.5241
33.2954 234.14 10.8199
33.3464 275.115 11.7285
33.3974 255.817 11.3097
33.4484 259.327 11.387
33.4994 244.793 11.0633
33.5504 246.991 11.1129
33.6014 269.172 11.6011
33.6524 251.313 11.2097
33.7034 250.665 11.1952
33.7544 251.81 11.2208
33.8054 259.674 11.3946
33.8564 261.688 11.4387
33.9074 231.808 10.7659
33.9584 252.22 11.2299
34.0094 247.451 11.1232
34.0604 245.329 11.0754
34.1114 249.447 11.168
34.1624 252.302 11.2317
34.2134 237.015 10.8861
34.2644 259.055 11.381
34.3154 246.578 11.1036
34.3664 245.102 11.0703
34.4174 270.821 11.6366
34.4684 260.944 11.4224
34.5194 255.042 11.2925
34.5704 259.886 11.3993
34.6214 251.885 11.2224
34.6724 265.99 11.5323
34.7234 250.168 11.1841
34.7744 244.276 11.0516
34.8254 245.488 11.079
34.8764 255.302 11.2983
34.9274 261.048 11.4247
34.9784 251.691 11.2181
35.0294 247.465 11.1235
35.0804 254.086 11.2713
35.1314 242.42 11.0095
35.1824 257.376 11.3441
35.2334 276.986 11.7683
35.2844 272.37 11.6698
35.3354 271.973 11.6613
35.3864 280.206 11.8365
35.4374 256.895 11.3335
35.4884 273.181 11.6872
35.5394 269.883 11.6164
35.5904 243.723 11.0391
35.6414 262.881 11.4648
35.6924 256.403 11.3226
35.7434 277 11.7686
35.7944 255.136 11.2946
35.8454 259.341 11.3873
35.8964 268.428 11.5851
35.9474 292.781 12.0992
35.9984 275.096 11.7281
36.0494 290.488 12.0517
36.1004 312.566 12.5013
36.1514 326.183 12.7707
36.2024 328.056 12.8074
36.2534 404.385 14.2194
36.3044 476.654 15.4378
36.3554 551.991 16.6131
36.4064 655.356 18.1019
36.4574 804.966 20.062
36.5084 883.237 21.0147
36.5594 911.402 21.3472
36.6104 852.551 20.6464
36.6614 774.725 19.6815
36.7124 637.674 17.856
36.7634 542.138 16.4642
36.8144 439.22 14.8192
36.8654 379.608 13.7769
36.9164 324.982 12.7472
36.9674 305.153 12.3522
37.0184 312.671 12.5034
37.0694 291.297 12.0685
37.1204 270.163 11.6225
37.1714 284.687 11.9308
37.2224 283.286 11.9014
37.2734 272.25 11.6673
37.3244 267.279 11.5603
37.3754 267.314 11.561
37.4264 261.903 11.4434
37.4774 278.879 11.8085
37.5284 269.138 11.6004
37.5794 274.084 11.7065
37.6304 256.646 11.328
37.6814 267.149 11.5574
37.7324 268.426 11.585
37.7834 261.597 11.4367
37.8344 280.486 11.8424
37.8854 288.95 12.0198
37.9364 291.721 12.0773
37.9874 297.728 12.201
38.0384 285.366 11.945
38.0894 278.963 11.8102
38.1404 290.864 12.0595
38.1914 289.516 12.0315
38.2424 279.935 11.8308
38.2934 272.667 11.6762
38.3444 275.21 11.7305
38.3954 262.433 11.455
38.4464 240.967 10.9765
38.4974 260.381 11.4101
38.5484 245.409 11.0772
38.5994 238.784 10.9267
38.6504 258.899 11.3776
38.7014 249.371 11.1663
38.7524 246.722 11.1068
38.8034 249.936 11.1789
38.8544 255.752 11.3082
38.9054 245.982 11.0901
38.9564 242.617 11.014
39.0074 240.886 10.9747
39.0584 237.172 10.8897
39.1094 248.22 11.1405
39.1604 240.535 10.9667
39.2114 249.271 11.164
39.2624 255.588 11.3046
39.3134 227.36 10.6621
39.3644 242.704 11.016
39.4154 244.14 11.0485
39.4664 231.519 10.7592
39.5174 247.245 11.1186
39.5684 239.223 10.9367
39.6194 240.623 10.9686
39.6704 249.914 11.1784
39.7214 252.84 11.2437
39.7724 258.329 11.3651
39.8234 242.194 11.0044
39.8744 236.828 10.8818
39.9254 250.379 11.1888
39.9764 239.846 10.9509
40.0274 251.288 11.2091
40.0784 248.679 11.1508
40.1294 236.331 10.8704
40.1804 217.988 10.44
40.2314 248.166 11.1392
40.2824 256.467 11.324
40.3334 253.354 11.2551
40.3844 232.957 10.7925
40.4354 234.217 10.8217
40.4864 241.357 10.9854
40.5374 232.086 10.7723
40.5884 250.132 11.1833
40.6394 255.235 11.2968
40.6904 228.596 10.691
40.7414 231.023 10.7476
40.7924 241.087 10.9792
40.8434 230.884 10.7444
40.8944 243.755 11.0398
40.9454 240.261 10.9604
40.9964 251.773 11.2199
41.0474 236.545 10.8753
41.0984 237.694 10.9017
41.1494 232.902 10.7913
41.2004 248.78 11.153
41.2514 247.595 11.1264
41.3024 239.605 10.9454
41.3534 260.187 11.4059
41.4044 236.682 10.8785
41.4554 253.069 11.2487
41.5064 249.096 11.1601
41.5574 241.737 10.994
41.6084 228.142 10.6804
41.6594 240.406 10.9637
41.7104 234.068 10.8182
41.7614 231.159 10.7508
41.8124 236.901 10.8835
41.8634 234.619 10.8309
41.9144 243.193 11.0271
41.9654 247.227 11.1182
42.0164 228.111 10.6797
42.0674 225.893 10.6276
42.1184 228.29 10.6839
42.1694 220.247 10.494
42.2204 255.397 11.3004
42.2714 229.337 10.7083
42.3224 249.419 11.1673
42.3734 240.099 10.9567
42.4244 227.948 10.6759
42.4754 215.476 10.3797
42.5264 213.667 10.336
42.5774 230.457 10.7345
42.6284 224.917 10.6046
42.6794 240.997 10.9772
42.7304 224.095 10.5853
42.7814 224.989 10.6063
42.8324 231.819 10.7661
42.8834 219.674 10.4803
42.9344 238.676 10.9242
42.9854 215.936 10.3908
43.0364 222.448 10.5463
43.0874 213.884 10.3413
43.1384 224.675 10.5989
43.1894 221.77 10.5302
43.2404 214.549 10.3573
43.2914 224.373 10.5918
43.3424 213.93 10.3424
43.3934 230.484 10.7351
43.4444 233.973 10.816
43.4954 228.677 10.6929
43.5464 226.03 10.6309
43.5974 222.383 10.5447
43.6484 211.878 10.2927
43.6994 212.247 10.3016
43.7504 213.023 10.3204
43.8014 213.445 10.3307
43.8524 207.797 10.1931
43.9034 227.338 10.6616
43.9544 217.299 10.4235
44.0054 219.386 10.4734
44.0564 223.305 10.5666
44.1074 220.926 10.5101
44.1584 219.09 10.4664
44.2094 218.677 10.4565
44.2604 193.686 9.84088
44.3114 202.353 10.0587
44.3624 218.44 10.4508
44.4134 215.507 10.3804
44.4644 212.947 10.3186
44.5154 216.358 10.4009
44.5664 219.302 10.4714
44.6174 227.865 10.6739
44.6684 204.241 10.1055
44.7194 207.018 10.1739
44.7704 213.804 10.3393
44.8214 207.827 10.1938
44.8724 218.438 10.4508
44.9234 217.391 10.4257
44.9744 226.241 10.6358
45.0254 218.466 10.4515
45.0764 205.173 10.1285
45.1274 205.87 10.1457
45.1784 232.446 10.7807
45.2294 214.596 10.3585
45.2804 215.912 10.3902
45.3314 201.423 10.0355
45.3824 212.376 10.3047
45.4334 200.023 10.0006
45.4844 218.166 10.4443
45.5354 214.426 10.3544
45.5864 205.813 10.1443
45.6374 211.567 10.2851
45.6884 217.085 10.4184
45.7394 207.936 10.1965
45.7904 208.041 10.1991
45.8414 210.748 10.2652
45.8924 210.522 10.2597
45.9434 207.595 10.1881
45.9944 205.893 10.1463
46.0454 215.109 10.3709
46.0964 205.378 10.1335
46.1474 222.13 10.5387
46.1984 200.534 10.0133
46.2494 214.196 10.3488
46.3004 208.098 10.2004
46.3514 222.983 10.5589
46.4024 211.751 10.2896
46.4534 213.109 10.3225
46.5044 196.577 9.91405
46.5554 220.988 10.5116
46.6064 197.395 9.93467
46.6574 212.299 10.3029
46.7084 207.871 10.1949
46.7594 216.889 10.4137
46.8104 215.561 10.3817
46.8614 212.506 10.3079
46.9124 204.411 10.1097
46.9634 202.326 10.058
47.0144 204.221 10.105
47.0654 206.987 10.1732
47.1164 206.6 10.1637
47.1674 204.951 10.123
47.2184 210.607 10.2618
47.2694 203.347 10.0833
47.3204 198.658 9.9664
47.3714 203.762 10.0936
47.4224 211.473 10.2828
47.4734 211.32 10.2791
47.5244 215.099 10.3706
47.5754 218.757 10.4584
47.6264 194.176 9.85333
47.6774 214.613 10.3589
47.7284 216.798 10.4115
47.7794 208.176 10.2024
47.8304 201.001 10.025
47.8814 211.365 10.2802
47.9324 207.645 10.1893
47.9834 225.474 10.6178
48.0344 218.149 10.4439
48.0854 213.559 10.3334
48.1364 222.232 10.5412
48.1874 191.618 9.7882
48.2384 201.777 10.0443
48.2894 224.258 10.5891
48.3404 224.03 10.5837
48.3914 195.171 9.87854
48.4424 195.534 9.88771
48.4934 209.722 10.2402
48.5444 214.46 10.3552
48.5954 205.97 10.1482
48.6464 222.208 10.5406
48.6974 199.123 9.97805
48.7484 220.538 10.5009
48.7994 196.049 9.90073
48.8504 218.221 10.4456
48.9014 225.585 10.6204
48.9524 224.278 10.5896
49.0034 232.682 10.7861
49.0544 220.222 10.4934
49.1054 235.6 10.8536
49.1564 233.347 10.8015
49.2074 235.492 10.8511
49.2584 235.807 10.8583
49.3094 270.943 11.6392
49.3604 289.651 12.0344
49.4114 281.213 11.8578
49.4624 310.26 12.4551
49.5134 332.457 12.893
49.5644 379.377 13.7727
49.6154 430.562 14.6725
49.6664 491.666 15.6791
49.7174 528.763 16.2598
49.7684 554.832 16.6558
49.8194 572.424 16.9178
49.8704 581.73 17.0548
49.9214 576.111 16.9722
49.9724 536.016 16.371
50.0234 493.497 15.7082
50.0744 476.597 15.4369
50.1254 399.097 14.1262
50.1764 352.738 13.2804
50.2274 303.785 12.3245
50.2784 304.92 12.3475
50.3294 262.892 11.465
50.3804 265.058 11.5121
50.4314 261.827 11.4417
50.4824 231.723 10.7639
50.5334 226.112 10.6328
50.5844 230.161 10.7276
50.6354 229.145 10.7038
50.6864 222.243 10.5414
50.7374 223.073 10.5611
50.7884 222.442 10.5461
50.8394 229.644 10.7155
50.8904 209.004 10.2226
50.9414 210.848 10.2676
50.9924 204.3 10.1069
51.0434 206.531 10.162
51.0944 206.165 10.153
51.1454 217.995 10.4402
51.1964 208.027 10.1987
51.2474 181.244 9.51956
51.2984 216.116 10.3951
51.3494 195.266 9.88093
51.4004 204.071 10.1013
51.4514 195.933 9.89781
51.5024 201.434 10.0358
51.5534 202.811 10.07
51.6044 194.95 9.87295
51.6554 204.684 10.1164
51.7064 200.19 10.0048
51.7574 201.784 10.0445
51.8084 198.395 9.95979
51.8594 198.924 9.97307
51.9104 196.999 9.9247
51.9614 202.444 10.0609
52.0124 183.327 9.57411
52.0634 190.684 9.76433
52.1144 192.813 9.81868
52.1654 207.622 10.1888
52.2164 206.705 10.1662
52.2674 181.788 9.53384
52.3184 203.857 10.096
52.3694 191.315 9.78048
52.4204 209.787 10.2418
52.4714 194.989 9.87394
52.5224 208.672 10.2145
52.5734 196.226 9.90519
52.6244 204.115 10.1023
52.6754 194.039 9.84984
52.7264 203.49 10.0869
52.7774 202.961 10.0738
52.8284 190.277 9.75389
52.8794 202.907 10.0724
52.9304 201.42 10.0354
52.9814 196.12 9.90253
53.0324 194.879 9.87115
53.0834 207.683 10.1903
53.1344 210.307 10.2544
53.1854 218.288 10.4472
53.2364 208.022 10.1986
53.2874 200.076 10.0019
53.3384 181.406 9.5238
53.3894 201.551 10.0387
53.4404 197.717 9.94276
53.4914 189.482 9.7335
53.5424 213.129 10.323
53.5934 206.867 10.1702
53.6444 196.478 9.91156
53.6954 184.253 9.59826
53.7464 199.333 9.98332
53.7974 201.933 10.0482
53.8484 192.96 9.82244
53.8994 183.109 9.5684
53.9504 190.929 9.77059
54.0014 197.976 9.94927
54.0524 192.758 9.81728
54.1034 189.469 9.73318
54.1544 198.348 9.95862
54.2054 188.65 9.7121
54.2564 201.729 10.0431
54.3074 182.888 9.56264
54.3584 197.238 9.93071
54.4094 184.153 9.59565
54.4604 182.478 9.55191
54.5114 198.877 9.9719
54.5624 190.611 9.76246
54.6134 194.129 9.85212
54.6644 192.365 9.80727
54.7154 191.229 9.77827
54.7664 194.811 9.86942
54.8174 198.874 9.97181
54.8684 192.23 9.80382
54.9194 199.758 9.99396
54.9704 217.945 10.439
55.0214 222.412 10.5454
55.0724 208.399 10.2078
55.1234 250.991 11.2025
55.1744 266.148 11.5358
55.2254 365.684 13.5219
55.2764 502.646 15.8532
55.3274 636.58 17.8407
55.3784 524.23 16.19
55.4294 348.568 13.2017
55.4804 263.29 11.4737
55.5314 235.828 10.8588
55.5824 216.821 10.412
55.6334 209.305 10.23
55.6844 225.659 10.6221
55.7354 198.692 9.96725
55.7864 191.127 9.77567
55.8374 196.16 9.90354
55.8884 188.301 9.70311
55.9394 200.416 10.0104
55.9904 197.868 9.94656
56.0414 193.813 9.8441
56.0924 182.69 9.55745
56.1434 202.866 10.0714
56.1944 192.581 9.81276
56.2454 181.654 9.53031
56.2964 195.918 9.89742
56.3474 175.82 9.37604
56.3984 194.272 9.85576
56.4494 202.629 10.0655
56.5004 197.057 9.92615
56.5514 185.677 9.63527
56.6024 189.272 9.72809
56.6534 174.49 9.34051
56.7044 213.12 10.3228
56.7554 188.722 9.71396
56.8064 204.246 10.1056
56.8574 193.57 9.83793
56.9084 185.783 9.63801
56.9594 176.961 9.40642
57.0104 191.337 9.78104
57.0614 188.294 9.70294
57.1124 182.333 9.54811
57.1634 192.577 9.81267
57.2144 202.867 10.0714
57.2654 173.699 9.31931
57.3164 181.861 9.53575
57.3674 192.349 9.80685
57.4184 189.598 9.73649
57.4694 189.939 9.74522
57.5204 197.764 9.94393
57.5714 180.08 9.48893
57.6224 189.083 9.72326
57.6734 188.817 9.71641
57.7244 185.83 9.63924
57.7754 204.202 10.1045
57.8264 197.016 9.92511
57.8774 200.527 10.0132
57.9284 197.831 9.94563
57.9794 200.945 10.0236
58.0304 200.597 10.0149
58.0814 219.188 10.4687
58.1324 201.73 10.0432
58.1834 225.038 10.6075
58.2344 204.296 10.1068
58.2854 210.598 10.2615
58.3364 211.71 10.2886
58.3874 212.372 10.3047
58.4384 236.166 10.8666
58.4894 231.499 10.7587
58.5404 231.346 10.7551
58.5914 243.802 11.0409
58.6424 230.63 10.7385
58.6934 258.207 11.3624
58.7444 275.426 11.7351
58.7954 330.57 12.8563
58.8464 368.443 13.5728
58.8974 393.482 14.0264
58.9484 383.409 13.8457
58.9994 348.728 13.2047
59.0504 319.231 12.6339
59.1014 285.808 11.9543
59.1524 260.697 11.417
59.2034 237.456 10.8962
59.2544 198.851 9.97124
59.3054 207.207 10.1786
59.3564 201.986 10.0495
59.4074 208.204 10.203
59.4584 198.187 9.95457
59.5094 193.9 9.84632
59.5604 200.635 10.0159
59.6114 182.773 9.55963
59.6624 197.291 9.93204
59.7134 204.229 10.1052
59.7644 191.121 9.77551
59.8154 201.289 10.0322
59.8664 194.547 9.86274
59.9174 201.227 10.0306
59.9684 200.471 10.0118
60.0194 204.672 10.1161
60.0704 182.362 9.54886
60.1214 193.497 9.83609
60.1724 184.629 9.60805
60.2234 185.975 9.643
60.2744 187.015 9.66993
60.3254 205.166 10.1283
60.3764 178.436 9.44552
60.4274 186.991 9.66931
60.4784 194.062 9.85042
60.5294 198.214 9.95526
60.5804 190.908 9.77006
60.6314 171.526 9.26082
60.6824 191.814 9.7932
60.7334 190.974 9.77174
60.7844 185.891 9.64082
60.8354 188.608 9.71104
60.8864 188.99 9.72084
60.9374 184.698 9.60984
60.9884 191.35 9.78136
61.0394 182.503 9.55256
61.0904 201.519 10.0379
61.1414 182.52 9.55301
61.1924 182.073 9.54131
61.2434 186.843 9.66548
61.2944 178.496 9.44711
61.3454 178.645 9.45106
61.3964 190.131 9.75015
61.4474 201.291 10.0322
61.4984 191.767 9.79202
61.5494 182.49 9.55222
61.6004 189.49 9.73369
61.6514 185.334 9.62636
61.7024 191.411 9.78292
61.7534 192.634 9.81411
61.8044 175.382 9.36434
61.8554 186.966 9.66867
61.9064 194.41 9.85925
61.9574 179.24 9.46679
62.0084 171.391 9.25718
62.0594 198.256 9.95631
62.1104 172.491 9.28683
62.1614 181.154 9.5172
62.2124 201.953 10.0487
62.2634 180.404 9.49748
62.3144 191.866 9.79454
62.3654 183.09 9.5679
62.4164 185.116 9.62071
62.4674 180.116 9.48988
62.5184 195.379 9.88381
62.5694 205.195 10.129
62.6204 194.765 9.86826
62.6714 186.315 9.6518
62.7224 177.63 9.42418
62.7734 174.273 9.33468
62.8244 179.845 9.48274
62.8754 187.268 9.67646
62.9264 184.036 9.59261
62.9774 199.489 9.98722
63.0284 181.642 9.53002
63.0794 180.502 9.50004
63.1304 188.504 9.70834
63.1814 176.595 9.39667
63.2324 180.459 9.49893
63.2834 191.989 9.79768
63.3344 179.393 9.47083
63.3854 189.948 9.74547
63.4364 178.81 9.45543
63.4874 186.195 9.6487
63.5384 186.816 9.66477
63.5894 177.327 9.41613
63.6404 196.127 9.9027
63.6914 199.412 9.98528
63.7424 185.657 9.63476
63.7934 192.496 9.81061
63.8444 188.397 9.70558
63.8954 181.332 9.52187
63.9464 179.488 9.47334
63.9974 195.248 9.88048
64.0484 191.226 9.77819
64.0994 185.148 9.62153
64.1504 186.048 9.64491
64.2014 196.426 9.91026
64.2524 173.575 9.31599
64.3034 189.473 9.73327
64.3544 187.961 9.69436
64.4054 187.25 9.676
64.4564 193.748 9.84246
64.5074 197.708 9.94253
64.5584 181.047 9.51439
64.6094 175.026 9.35483
64.6604 194.466 9.86069
64.7114 198.364 9.95902
64.7624 227.02 10.6541
64.8134 252.379 11.2334
64.8644 233.125 10.7964
64.9154 230.108 10.7263
64.9664 205.227 10.1298
65.0174 207.079 10.1754
65.0684 189.636 9.73745
65.1194 187.15 9.67342
65.1704 181.405 9.52379
65.2214 179.942 9.48531
65.2724 191.648 9.78898
65.3234 189.618 9.737
65.3744 173.451 9.31265
65.4254 187.615 9.68542
65.4764 187.824 9.69082
65.5274 180.51 9.50026
65.5784 177.656 9.42487
65.6294 182.846 9.56154
65.6804 190.056 9.74823
65.7314 188.764 9.71504
65.7824 191.968 9.79713
65.8334 169.75 9.21277
65.8844 186.72 9.66229
65.9354 204.039 10.1005
65.9864 181.942 9.53788
66.0374 197.894 9.94721
66.0884 187.683 9.68718
66.1394 191.254 9.77891
66.1904 189.382 9.73092
66.2414 180.246 9.49331
66.2924 199.136 9.97837
66.3434 186.311 9.6517
66.3944 190.47 9.75884
66.4454 197.146 9.9284
66.4964 186.084 9.64584
66.5474 192.329 9.80635
66.5984 184.229 9.59763
66.6494 201.35 10.0337
66.7004 196.237 9.90548
66.7514 200.401 10.01
66.8024 201.664 10.0415
66.8534 189.323 9.72941
66.9044 187.149 9.6734
66.9554 206.715 10.1665
67.0064 233.271 10.7998
67.0574 221.796 10.5308
67.1084 226.321 10.6377
67.1594 219.343 10.4724
67.2104 235.549 10.8524
67.2614 267.175 11.558
67.3124 271.378 11.6486
67.3634 280.484 11.8424
67.4144 282.31 11.8809
67.4654 273.211 11.6878
67.4824 283.587 11.9077