File: XRD_R=1,5_wet.csv
5.00436 60.091 1.34942
5.08936 58.2874 1.32902
5.17436 57.4139 1.31902
5.25936 59.8559 1.34678
5.34436 57.6174 1.32136
5.42936 60.3053 1.35183
5.51436 59.9833 1.34821
5.59936 59.2919 1.34042
5.68436 61.5357 1.36555
5.76936 62.1746 1.37262
5.85436 59.2214 1.33962
5.93936 62.9024 1.38063
6.02436 61.2492 1.36236
6.10936 60.734 1.35662
6.19436 63.7627 1.39004
6.27936 63.0911 1.3827
6.36436 61.5926 1.36618
6.44936 63.0366 1.3821
6.53436 61.7778 1.36823
6.61936 62.2045 1.37295
6.70436 63.1377 1.38321
6.78936 63.8805 1.39132
6.87436 62.6432 1.37778
6.95936 62.936 1.381
7.04436 63.3343 1.38536
7.12936 59.7904 1.34604
7.21436 61.788 1.36834
7.29936 64.072 1.3934
7.38436 62.9141 1.38076
7.46936 62.8639 1.38021
7.55436 62.266 1.37363
7.63936 65.9067 1.41321
7.72436 65.7334 1.41135
7.80936 66.1868 1.41621
7.89436 68.59 1.44169
7.97936 73.1472 1.48882
8.06436 74.9643 1.5072
8.14936 77.6052 1.53352
8.23436 74.3956 1.50147
8.31936 69.0225 1.44623
8.40436 68.4806 1.44055
8.48936 65.918 1.41334
8.57436 68.9268 1.44523
8.65936 66.0074 1.41429
8.74436 67.9179 1.43461
8.82936 68.9316 1.44528
8.91436 68.5352 1.44112
8.99936 77.7552 1.535
9.08436 86.7569 1.62142
9.16936 78.3485 1.54084
9.25436 71.6836 1.47385
9.33936 67.8325 1.43371
9.42436 66.7528 1.42226
9.50936 67.7793 1.43315
9.59436 67.1303 1.42627
9.67936 69.2568 1.44869
9.76436 68.8692 1.44463
9.84936 72.161 1.47875
9.93436 68.6058 1.44186
10.0194 70.6582 1.46327
10.1044 71.7102 1.47412
10.1894 73.7096 1.49453
10.2744 70.4349 1.46096
10.3594 73.3149 1.49052
10.4444 71.5063 1.47202
10.5294 74.7615 1.50516
10.6144 73.6827 1.49426
10.6994 74.8898 1.50645
10.7844 73.7547 1.49499
10.8694 76.9223 1.52675
10.9544 74.4375 1.50189
11.0394 75.7301 1.51488
11.1244 74.6195 1.50373
11.2094 76.551 1.52307
11.2944 79.3981 1.55113
11.3794 80.5153 1.562
11.4644 79.9491 1.5565
11.5494 85.5161 1.60978
11.6344 89.9755 1.65122
11.7194 123.854 1.9373
11.8044 193.071 2.41881
11.8894 1695.61 7.16812
11.9744 606.931 4.28857
12.0594 132.012 2.00009
12.1444 96.3647 1.70884
12.2294 90.9729 1.66035
12.3144 86.9654 1.62337
12.3994 87.4467 1.62785
12.4844 84.877 1.60376
12.5694 83.9674 1.59514
12.6544 84.4325 1.59955
12.7394 82.5228 1.58136
12.8244 86.203 1.61623
12.9094 89.2502 1.64455
12.9944 84.2079 1.59742
13.0794 86.555 1.61953
13.1644 88.1107 1.63402
13.2494 89.6099 1.64786
13.3344 88.1264 1.63417
13.4194 88.6309 1.63884
13.5044 88.949 1.64177
13.5894 89.2103 1.64418
13.6744 94.0173 1.6879
13.7594 92.8678 1.67755
13.8444 93.7175 1.68521
13.9294 94.0753 1.68842
14.0144 93.4504 1.6828
14.0994 92.0264 1.66993
14.1844 97.1817 1.71607
14.2694 95.1028 1.69762
14.3544 97.5443 1.71927
14.4394 98.9454 1.73157
14.5244 99.242 1.73417
14.6094 99.6149 1.73742
14.6944 102.062 1.75864
14.7794 102.097 1.75893
14.8644 101.92 1.75741
14.9494 105.217 1.7856
15.0344 105.515 1.78813
15.1194 105.193 1.7854
15.2044 108.061 1.80958
15.2894 110.135 1.82686
15.3744 111.522 1.83833
15.4594 111.263 1.83619
15.5444 114.86 1.86564
15.6294 112.076 1.84289
15.7144 118.184 1.89244
15.7994 119.796 1.9053
15.8844 125.831 1.9527
15.9694 123.372 1.93353
16.0544 125.845 1.95281
16.1394 130.713 1.99022
16.2244 133.164 2.0088
16.3094 134.896 2.02182
16.3944 137.788 2.04337
16.4794 137.019 2.03767
16.5644 139.344 2.05489
16.6494 158.719 2.19309
16.7344 263.021 2.82318
16.8194 151.198 2.1405
16.9044 149.275 2.12685
16.9894 152.472 2.1495
17.0744 152.733 2.15134
17.1594 158.798 2.19364
17.2444 162.912 2.22188
17.3294 166.807 2.24828
17.4144 169.117 2.26379
17.4994 174.983 2.30272
17.5844 177.057 2.31632
17.6694 183.996 2.36128
17.7544 188.987 2.39309
17.8394 192.183 2.41324
17.9244 195.787 2.43576
18.0094 201.915 2.47359
18.0944 214.148 2.54742
18.1794 223.545 2.60271
18.2644 234.513 2.66579
18.3494 248.851 2.74608
18.4344 258.455 2.79857
18.5194 281.472 2.92052
18.6044 293.602 2.98279
18.6894 311.204 3.0709
18.7744 313.69 3.08314
18.8594 305.996 3.0451
18.9444 296.651 2.99824
19.0294 288.747 2.95803
19.1144 287.193 2.95005
19.1994 282.537 2.92604
19.2844 281.659 2.92149
19.3694 283.468 2.93086
19.4544 283.249 2.92973
19.5394 288.801 2.9583
19.6244 290.955 2.96931
19.7094 293.779 2.98369
19.7944 293.277 2.98114
19.8794 296.149 2.9957
19.9644 297.788 3.00398
20.0494 296.374 2.99684
20.1344 300.165 3.01594
20.2194 303.082 3.03056
20.3044 356.1 3.28495
20.3894 385.084 3.41602
20.4744 306.913 3.04966
20.5594 306.314 3.04668
20.6444 306.281 3.04651
20.7294 299.094 3.01055
20.8144 302.115 3.02572
20.8994 301.963 3.02496
20.9844 298.845 3.0093
21.0694 301.069 3.02048
21.1544 297.327 3.00165
21.2394 297.817 3.00412
21.3244 294.618 2.98795
21.4094 289.66 2.9627
21.4944 290.26 2.96576
21.5794 291.642 2.97282
21.6644 287.356 2.95089
21.7494 282.223 2.92441
21.8344 280.694 2.91648
21.9194 277.718 2.90098
22.0044 276.255 2.89333
22.0894 273.644 2.87963
22.1744 276.357 2.89386
22.2594 264.248 2.82975
22.3444 268.876 2.85443
22.4294 265.899 2.83858
22.5144 263.593 2.82624
22.5994 263.109 2.82365
22.6844 258.786 2.80036
22.7694 255.116 2.78043
22.8544 258.01 2.79615
22.9394 250.03 2.75257
23.0244 251.777 2.76217
23.1094 248.071 2.74177
23.1944 245.862 2.72954
23.2794 246.075 2.73072
23.3644 242.396 2.71023
23.4494 244.965 2.72455
23.5344 260.773 2.81108
23.6194 704.937 4.62187
23.7044 283.416 2.93059
23.7894 256.193 2.78629
23.8744 425.064 3.58897
23.9594 1394.49 6.50055
24.0444 347.957 3.24718
24.1294 244.334 2.72104
24.2144 235.096 2.66911
24.2994 229.394 2.63654
24.3844 226.69 2.62095
24.4694 225.951 2.61668
24.5544 221.317 2.58971
24.6394 220.66 2.58586
24.7244 218.803 2.57495
24.8094 217.24 2.56574
24.8944 213.743 2.54501
24.9794 209.787 2.52134
25.0644 213.837 2.54557
25.1494 211.527 2.53178
25.2344 209.962 2.5224
25.3194 209.574 2.52007
25.4044 207.659 2.50853
25.4894 208.644 2.51447
25.5744 202.804 2.47903
25.6594 204.196 2.48752
25.7444 204.937 2.49203
25.8294 205.681 2.49655
25.9144 201.511 2.47111
25.9994 201.686 2.47218
26.0844 203.306 2.48209
26.1694 200.504 2.46493
26.2544 200.711 2.4662
26.3394 198.81 2.45449
26.4244 212.722 2.53892
26.5094 199.695 2.45995
26.5944 216.73 2.56273
26.6794 587.028 4.21767
26.7644 378.408 3.38628
26.8494 216.386 2.56069
26.9344 200.577 2.46538
27.0194 197.53 2.44658
27.1044 197.207 2.44458
27.1894 193.4 2.42087
27.2744 196.06 2.43746
27.3594 194.861 2.43
27.4444 196.374 2.43941
27.5294 196.842 2.44232
27.6144 195.021 2.43099
27.6994 191.108 2.40648
27.7844 193.7 2.42274
27.8694 193.294 2.4202
27.9544 189.206 2.39448
28.0394 191.688 2.41013
28.1244 190.701 2.40392
28.2094 191.031 2.406
28.2944 191.042 2.40606
28.3794 190.256 2.40111
28.4644 190.12 2.40025
28.5494 189.226 2.3946
28.6344 189.092 2.39376
28.7194 190.153 2.40046
28.8044 189.18 2.39431
28.8894 189.209 2.3945
28.9744 186.514 2.37738
29.0594 189.625 2.39713
29.1444 187.305 2.38242
29.2294 191.537 2.40918
29.3144 187.833 2.38577
29.3994 186.198 2.37537
29.4844 189.63 2.39716
29.5694 187.256 2.3821
29.6544 187.171 2.38157
29.7394 191.715 2.4103
29.8244 193.764 2.42315
29.9094 187.15 2.38143
29.9944 188.459 2.38974
30.0794 187.699 2.38492
30.1644 188.027 2.387
30.2494 190.641 2.40354
30.3344 187.796 2.38553
30.4194 189.478 2.3962
30.5044 194.106 2.42528
30.5894 192.069 2.41253
30.6744 188.48 2.38988
30.7594 191.778 2.41069
30.8444 187.781 2.38544
30.9294 191.767 2.41062
31.0144 201.528 2.47121
31.0994 253.954 2.77409
31.1844 227.638 2.62643
31.2694 327.643 3.15097
31.3544 290.481 2.96689
31.4394 203.716 2.48459
31.5244 219.95 2.5817
31.6094 458.812 3.72872
31.6944 222.141 2.59452
31.7794 208.831 2.51559
31.8644 416.082 3.55085
31.9494 266.262 2.84052
32.0344 202.83 2.47919
32.1194 193.737 2.42298
32.2044 196.691 2.44138
32.2894 198.929 2.45523
32.3744 196.79 2.44199
32.4594 196.767 2.44185
32.5444 190.582 2.40316
32.6294 193.489 2.42142
32.7144 194.511 2.42781
32.7994 194.098 2.42524
32.8844 195.628 2.43477
32.9694 195.713 2.4353
33.0544 198.968 2.45547
33.1394 201.172 2.46903
33.2244 198.524 2.45273
33.3094 192.891 2.41768
33.3944 201.855 2.47322
33.4794 206.207 2.49974
33.5644 456.904 3.72097
33.6494 343.842 3.22792
33.7344 252.1 2.76395
33.8194 530.369 4.00896
33.9044 235.407 2.67087
33.9894 207.45 2.50726
34.0744 201.534 2.47125
34.1594 200.939 2.4676
34.2444 199.8 2.4606
34.3294 200.692 2.46609
34.4144 197.963 2.44926
34.4994 199.158 2.45664
34.5844 199.509 2.45881
34.6694 201.681 2.47216
34.7544 205.943 2.49814
34.8394 200.375 2.46413
34.9244 204.24 2.48779
35.0094 199.909 2.46127
35.0944 204.549 2.48967
35.1794 204.06 2.48669
35.2644 205.267 2.49403
35.3494 204.168 2.48735
35.4344 204.149 2.48724
35.5194 202.259 2.47569
35.6044 232.369 2.65358
35.6894 214.332 2.54851
35.7744 208.348 2.51268
35.8594 208.449 2.51329
35.9444 215.022 2.55261
36.0294 223.075 2.59997
36.1144 236.61 2.67769
36.1994 301.62 3.02324
36.2844 1454.74 6.63952
36.3694 341.548 3.21713
36.4544 311.833 3.074
36.5394 320.73 3.11754
36.6244 288.424 2.95637
36.7094 260.8 2.81123
36.7944 240.807 2.70133
36.8794 230.237 2.64138
36.9644 220.717 2.58619
37.0494 217.094 2.56488
37.1344 218.709 2.5744
37.2194 207.256 2.50609
37.3044 210.488 2.52555
37.3894 208.6 2.5142
37.4744 209.654 2.52054
37.5594 203.394 2.48263
37.6444 212.136 2.53542
37.7294 221.042 2.5881
37.8144 205.68 2.49654
37.8994 204.995 2.49238
37.9844 203.651 2.4842
38.0694 202.46 2.47693
38.1544 228.237 2.62988
38.2394 221.459 2.59054
38.3244 205.111 2.49309
38.4094 202.637 2.47801
38.4944 197.356 2.4455
38.5794 195.514 2.43406
38.6644 196.819 2.44217
38.7494 196.281 2.43884
38.8344 198.274 2.45119
38.9194 196.729 2.44161
39.0044 196.41 2.43963
39.0894 196.258 2.43869
39.1744 197.332 2.44536
39.2594 193.045 2.41865
39.3444 192.552 2.41556
39.4294 193.199 2.41961
39.5144 195.589 2.43453
39.5994 195.388 2.43328
39.6844 196.791 2.442
39.7694 259.569 2.80459
39.8544 202.047 2.47439
39.9394 194.603 2.42839
40.0244 192.309 2.41403
40.1094 190.228 2.40094
40.1944 189.319 2.39519
40.2794 189.295 2.39504
40.3644 188.869 2.39234
40.4494 191.195 2.40703
40.5344 189.7 2.3976
40.6194 193.9 2.424
40.7044 189.221 2.39457
40.7894 190.93 2.40536
40.8744 191.866 2.41125
40.9594 186.747 2.37887
41.0444 189.417 2.39581
41.1294 188.45 2.38969
41.2144 186.706 2.3786
41.2994 188.769 2.39171
41.3844 209.005 2.51664
41.4694 187.727 2.3851
41.5544 186.331 2.37621
41.6394 188.53 2.3902
41.7244 187.637 2.38452
41.8094 189.185 2.39434
41.8944 184.719 2.36591
41.9794 183.999 2.3613
42.0644 184.509 2.36457
42.1494 186.269 2.37582
42.2344 183.216 2.35627
42.3194 181.802 2.34716
42.4044 185.273 2.36946
42.4894 182.744 2.35323
42.5744 181.61 2.34592
42.6594 182.118 2.3492
42.7444 184.569 2.36495
42.8294 180.734 2.34026
42.9144 180.507 2.33878
42.9994 183.962 2.36106
43.0844 182.992 2.35482
43.1694 197 2.4433
43.2544 195.344 2.43301
43.3394 289.499 2.96187
43.4244 242.671 2.71176
43.5094 190.378 2.40188
43.5944 237.361 2.68193
43.6794 191.414 2.40841
43.7644 185.069 2.36815
43.8494 232.449 2.65403
43.9344 639.567 4.40236
44.0194 246.302 2.73198
44.1044 190.05 2.39981
44.1894 183.559 2.35847
44.2744 178.885 2.32825
44.3594 180.866 2.34111
44.4444 176.925 2.31546
44.5294 176.841 2.31491
44.6144 176.003 2.30942
44.6994 174.136 2.29714
44.7844 180.886 2.34124
44.8694 181.485 2.34511
44.9544 184.037 2.36154
45.0394 175.422 2.30561
45.1244 175.255 2.30451
45.2094 177.172 2.31708
45.2944 173.148 2.29061
45.3794 178.363 2.32485
45.4644 181.388 2.34448
45.5494 172.411 2.28573
45.6344 171.875 2.28217
45.7194 173.271 2.29143
45.8044 173.918 2.2957
45.8894 178.222 2.32393
45.9744 177.514 2.31932
46.0594 176.204 2.31074
46.1444 172.565 2.28675
46.2294 177.137 2.31685
46.3144 168.312 2.2584
46.3994 175.632 2.30698
46.4844 175.764 2.30785
46.5694 172.227 2.28451
46.6544 171.103 2.27705
46.7394 169.932 2.26924
46.8244 174.421 2.29902
46.9094 175.686 2.30734
46.9944 178.644 2.32668
47.0794 204.626 2.49014
47.1644 176.762 2.3144
47.2494 170.053 2.27005
47.3344 171.907 2.28239
47.4194 170.878 2.27555
47.5044 171.366 2.27879
47.5894 172.799 2.28831
47.6744 174.841 2.30178
47.7594 174.599 2.30019
47.8444 174.363 2.29863
47.9294 177.444 2.31885
48.0144 173.969 2.29604
48.0994 175.467 2.3059
48.1844 182.589 2.35223
48.2694 189.969 2.3993
48.3544 331.108 3.16758
48.4394 197.07 2.44373
48.5244 217.708 2.5685
48.6094 535.35 4.02774
48.6944 271.414 2.86787
48.7794 192.553 2.41556
48.8644 194.209 2.42593
48.9494 329.776 3.16121
49.0344 289.32 2.96096
49.1194 234.534 2.66591
49.2044 191.272 2.40751
49.2894 183.053 2.35522
49.3744 179.918 2.33497
49.4594 190.696 2.40388
49.5444 198.606 2.45324
49.6294 207.405 2.50699
49.7144 233.488 2.65996
49.7994 291.135 2.97023
49.8844 317.622 3.1024
49.9694 367.022 3.33495
50.0544 214.564 2.54989
50.1394 195.992 2.43704
50.2244 193.477 2.42135
50.3094 184.97 2.36752
50.3944 181.427 2.34474
50.4794 214.525 2.54966
50.5644 218.327 2.57215
50.6494 199.912 2.46129
50.7344 178.775 2.32753
50.8194 173.915 2.29568
50.9044 172.848 2.28863
50.9894 173.058 2.29002
51.0744 172.974 2.28946
51.1594 170.572 2.27351
51.2444 176.651 2.31367
51.3294 170.334 2.27192
51.4144 171.271 2.27816
51.4994 169.687 2.2676
51.5844 171.573 2.28017
51.6694 179.349 2.33127
51.7544 184.023 2.36145
51.8394 176.064 2.30982
51.9244 175.2 2.30414
52.0094 169.676 2.26753
52.0944 170.842 2.27531
52.1794 168.029 2.2565
52.2644 171.729 2.2812
52.3494 172.997 2.28961
52.4344 171.071 2.27683
52.5194 169.767 2.26814
52.6044 172.059 2.2834
52.6894 171.124 2.27718
52.7744 171.998 2.28299
52.8594 170.704 2.27439
52.9444 171.86 2.28208
53.0294 170.385 2.27227
53.1144 175.312 2.30488
53.1994 182.07 2.34889
53.2844 168.204 2.25768
53.3694 174.203 2.29758
53.4544 203.094 2.4808
53.5394 180.937 2.34157
53.6244 194.41 2.42718
53.7094 438.611 3.64571
53.7944 386.38 3.42177
53.8794 218.916 2.57562
53.9644 184.004 2.36133
54.0494 173.979 2.2961
54.1344 174.166 2.29734
54.2194 175.506 2.30616
54.3044 204.349 2.48845
54.3894 188.991 2.39311
54.4744 255.665 2.78342
54.5594 177.657 2.32025
54.6444 174.028 2.29642
54.7294 169.477 2.2662
54.8144 169.136 2.26392
54.8994 166.931 2.24911
54.9844 174.876 2.30202
55.0694 174.133 2.29712
55.1544 170.889 2.27562
55.2394 193.315 2.42033
55.3244 256.185 2.78625
55.4094 231.347 2.64774
55.4944 199.461 2.45851
55.5794 188.029 2.38702
55.6644 278.331 2.90418
55.7494 611.998 4.30644
55.8344 197.031 2.44349
55.9194 180.389 2.33802
56.0044 200.273 2.46351
56.0894 684.928 4.55581
56.1744 239.448 2.6937
56.2594 177.975 2.32232
56.3444 171.039 2.27662
56.4294 170.72 2.27449
56.5144 170.418 2.27248
56.5994 169.365 2.26545
56.6844 169.986 2.2696
56.7694 168.764 2.26143
56.8544 169.212 2.26443
56.9394 168.372 2.2588
57.0244 168.748 2.26132
57.1094 175.457 2.30584
57.1944 220.305 2.58378
57.2794 176.037 2.30965
57.3644 169.382 2.26557
57.4494 167.226 2.2511
57.5344 171.306 2.27839
57.6194 168.283 2.2582
57.7044 168.582 2.26021
57.7894 167.274 2.25142
57.8744 167.246 2.25123
57.9594 163.878 2.22845
58.0444 171.342 2.27864
58.1294 169.028 2.26319
58.2144 175.726 2.30761
58.2994 174.453 2.29923
58.3844 173.08 2.29017
58.4694 175.444 2.30575
58.5544 177.572 2.31969
58.6394 186.988 2.3804
58.7244 307.833 3.05422
58.8094 233.475 2.65989
58.8944 221.776 2.59239
58.9794 339.915 3.20943
59.0644 281.323 2.91975
59.1494 204.235 2.48776
59.2344 373.36 3.36362
59.3194 361.423 3.30941
59.4044 248.714 2.74532
59.4894 188.195 2.38807
59.5744 177.647 2.32018
59.6594 173.134 2.29052
59.7444 171.95 2.28268
59.8294 174.687 2.30077
59.9144 170.662 2.27411
59.9994 169.433 2.26591
60.0844 172.082 2.28355
60.1694 172.285 2.2849
60.2544 170.372 2.27217
60.3394 168.242 2.25793
60.4244 164.559 2.23308
60.5094 173.275 2.29145
60.5944 168.931 2.26254
60.6794 169.682 2.26757
60.7644 170.799 2.27502
60.8494 168.892 2.26229
60.9344 169.738 2.26794
61.0194 166.019 2.24297
61.1044 160.295 2.20396
61.1894 167.381 2.25214
61.2744 167.071 2.25006
61.3594 168.111 2.25705
61.4444 168.365 2.25875
61.5294 167.777 2.25481
61.6144 170.629 2.27389
61.6994 189.38 2.39558
61.7844 172.983 2.28952
61.8694 171.538 2.27994
61.9544 174.542 2.29982
62.0394 167.061 2.24999
62.1244 172.089 2.2836
62.2094 171.864 2.2821
62.2944 172.536 2.28656
62.3794 204.727 2.49075
62.4644 196.861 2.44244
62.5494 188.984 2.39307
62.6344 177.647 2.32018
62.7194 178.282 2.32433
62.8044 171.843 2.28197
62.8894 166.841 2.24851
62.9744 168.686 2.2609
63.0594 170.949 2.27602
63.1444 169.118 2.2638
63.2294 171.44 2.27929
63.3144 169.245 2.26465
63.3994 171.379 2.27888
63.4844 169.588 2.26694
63.5694 168.3 2.25832
63.6544 181.051 2.3423
63.7394 206.418 2.50102
63.8244 180.182 2.33668
63.9094 179.378 2.33146
63.9944 173.384 2.29217
64.0794 168.923 2.2625
64.1644 169.229 2.26454
64.2494 170.105 2.2704
64.3344 169.545 2.26665
64.4194 168.418 2.25911
64.5044 176.349 2.31169
64.5894 225.331 2.61308
64.6744 187.161 2.3815
64.7594 177.944 2.32212
64.8444 182.058 2.34881
64.9294 181.161 2.34301
65.0144 178.774 2.32753
65.0994 197.261 2.44491
65.1844 294.018 2.9849
65.2694 246.85 2.73501
65.3544 261.183 2.8133
65.4394 186.225 2.37554
65.5244 176.141 2.31033
65.6094 193.862 2.42376
65.6944 221.633 2.59155
65.7794 176.326 2.31154
65.8644 172.178 2.28419
65.9494 168.882 2.26222
66.0344 168.852 2.26202
66.1194 166.013 2.24292
66.2044 173.901 2.29559
66.2894 173.418 2.2924
66.3744 172.784 2.2882
66.4594 172.786 2.28822
66.5444 174.627 2.30038
66.6294 230.095 2.64056
66.7144 237.128 2.68061
66.7994 222.907 2.59899
66.8844 181.004 2.342
66.9694 175.453 2.30581
67.0544 174.727 2.30104
67.1394 176.604 2.31336
67.2244 176.097 2.31004
67.3094 184.476 2.36435
67.3944 185.196 2.36896
67.4794 189.212 2.39451
67.5644 198.388 2.45189
67.6494 223.774 2.60404
67.7344 204.425 2.48891
67.8194 199.583 2.45926
67.9044 190.248 2.40106
67.9894 190.622 2.40342
68.0744 198.45 2.45227
68.1594 203.356 2.4824
68.2444 211.921 2.53414
68.3294 295.649 2.99317
68.4144 204.145 2.48721
68.4994 180.199 2.33679
68.5844 180.007 2.33554
68.6694 175.469 2.30592
68.7544 177.043 2.31623
68.8394 173.888 2.2955
68.9244 177.979 2.32235
69.0094 177.348 2.31823
69.0944 175.317 2.30492
69.1794 183.328 2.35699
69.2644 183.153 2.35586
69.3494 213.708 2.5448
69.4344 187.679 2.38479
69.5194 176.097 2.31004
69.6044 171.54 2.27995
69.6894 169.922 2.26917
69.7744 172.43 2.28586
69.8594 171.458 2.27941
69.9444 175.736 2.30767
70.0294 168.287 2.25823
70.1144 172.635 2.28722
70.1994 169.391 2.26563
70.2844 168.649 2.26066
70.3694 168.541 2.25994
70.4544 171.028 2.27655
70.5394 174.459 2.29927
70.6244 177.212 2.31734
70.7094 169.272 2.26483
70.7944 171.422 2.27916
70.8794 169.812 2.26844
70.9644 170.956 2.27607
71.0494 172.424 2.28582
71.1344 176.552 2.31302
71.2194 169.347 2.26533
71.3044 168.076 2.25681
71.3894 172.911 2.28905
71.4744 182.092 2.34903
71.5594 174.874 2.302
71.6444 171.874 2.28217
71.7294 170.335 2.27193
71.8144 169.732 2.26791
71.8994 170.457 2.27274
71.9844 170.411 2.27244
72.0694 168.829 2.26187
72.1544 170.913 2.27578
72.2394 173.132 2.29051
72.3244 173.56 2.29334
72.4094 173.879 2.29544
72.4944 191.813 2.41092
72.5794 192.172 2.41317
72.6644 170.138 2.27062
72.7494 175.085 2.30339
72.8344 171.287 2.27827
72.9194 170.267 2.27148
73.0044 173.849 2.29524
73.0894 171.376 2.27886
73.1744 170.734 2.27459
73.2594 171.698 2.281
73.3444 176.24 2.31097
73.4294 174.578 2.30006
73.5144 229.192 2.63538
73.5994 213.196 2.54175
73.6844 179.747 2.33385
73.7694 174.009 2.2963
73.8544 173.755 2.29462
73.9394 168.901 2.26235
74.0244 174.511 2.29961
74.1094 169.228 2.26454
74.1944 168.95 2.26268
74.2794 171.517 2.2798
74.3644 200.671 2.46596
74.4494 180.35 2.33777
74.5344 171.142 2.27731
74.6194 170.181 2.2709
74.7044 169.156 2.26405
74.7894 170.301 2.2717
74.8744 174.136 2.29714
74.9594 170.901 2.2757
75.0444 171.194 2.27765
75.1294 170.453 2.27272
75.2144 168.944 2.26263
75.2994 171.749 2.28134
75.3844 171.973 2.28283
75.4694 183.423 2.3576
75.5544 171.717 2.28113
75.6394 171.641 2.28062
75.7244 167.278 2.25145
75.8094 171.809 2.28174
75.8944 169.376 2.26552
75.9794 167.659 2.25401
76.0644 169.982 2.26957
76.1494 168.553 2.26001
76.2344 167.584 2.25351
76.3194 167.387 2.25218
76.4044 171.847 2.28199
76.4894 174.842 2.30179
76.5744 174.588 2.30012
76.6594 188.396 2.38935
76.7444 234.275 2.66444
76.8294 197.186 2.44445
76.9144 197.608 2.44707
76.9994 250.135 2.75315
77.0844 257.475 2.79325
77.1694 191.928 2.41164
77.2544 193.087 2.41891
77.3394 208.553 2.51392
77.4244 193.354 2.42058
77.5094 189.31 2.39513
77.5944 194.034 2.42484
77.6794 190.657 2.40364
77.7644 188.559 2.39038
77.8494 188.435 2.38959
77.9344 183.273 2.35663
78.0194 187.227 2.38192
78.1044 209.46 2.51938
78.1894 225.953 2.61669
78.2744 202.645 2.47806
78.3594 195.659 2.43497
78.4444 179.263 2.33071
78.5294 174.963 2.30259
78.6144 175.16 2.30388
78.6994 176.647 2.31364
78.7844 180.8 2.34068
78.8694 206.425 2.50106
78.9544 190.483 2.40254
79.0394 189.483 2.39623
79.1244 199.964 2.46161
79.2094 178.947 2.32866
79.2944 179.685 2.33345
79.3794 174.331 2.29843
79.4644 182.71 2.35302
79.5494 181.083 2.34251
79.6344 173.63 2.2938
79.7194 175.325 2.30497
79.8044 174.204 2.29759
79.8894 176.729 2.31418
79.9744 174.155 2.29726
80.0594 176.186 2.31062
80.1444 179.632 2.33311
80.2294 184.351 2.36355
80.3144 184.912 2.36715
80.3994 209.973 2.52246
80.4844 219.489 2.57899
80.5694 196.261 2.43871
80.6544 187.694 2.38489
80.7394 189.306 2.39511
80.8244 180.284 2.33734
80.9094 173.774 2.29475
80.9944 184.563 2.36492
81.0794 212.187 2.53572
81.1644 216.01 2.55847
81.2494 185.947 2.37377
81.3344 180.548 2.33905
81.4194 178.37 2.3249
81.5044 176.576 2.31318
81.5894 177.411 2.31864
81.6744 232.396 2.65373
81.7594 216.934 2.56393
81.8444 185.116 2.36845
81.9294 184.369 2.36367
82.0144 178.913 2.32844
82.0994 176.791 2.31459
82.1844 181.793 2.3471
82.2694 178.913 2.32843
82.3544 178.407 2.32514
82.4394 186.757 2.37893
82.5244 197.818 2.44837
82.6094 210.574 2.52607
82.6944 194.086 2.42516
82.7794 180.365 2.33786
82.8644 176.443 2.3123
82.9494 177.504 2.31925
83.0344 173.691 2.2942
83.1194 176.213 2.3108
83.2044 173.906 2.29562
83.2894 173.704 2.29429
83.3744 172.119 2.2838
83.4594 173.956 2.29595
83.5444 178.086 2.32304
83.6294 171.898 2.28233
83.7144 174.767 2.3013
83.7994 174.125 2.29706
83.8844 178.786 2.32761
83.9694 174.346 2.29852
84.0544 185.051 2.36804
84.1394 191.599 2.40957
84.2244 181.075 2.34246
84.3094 175.235 2.30438
84.3944 178.007 2.32253
84.4794 181.208 2.34332
84.5644 181.095 2.34259
84.6494 176.297 2.31135
84.7344 180.347 2.33774
84.8194 178.01 2.32255
84.9044 178.139 2.32339
84.9894 176.045 2.3097
85.0744 177.554 2.31957
85.1594 183.599 2.35873
85.2444 179.599 2.33289
85.3294 179.84 2.33446
85.4144 180.599 2.33938
85.4994 176.353 2.31172
85.5844 178.321 2.32458
85.6694 192.238 2.41359
85.7544 283.665 2.93188
85.8394 230.908 2.64523
85.9244 186.544 2.37757
86.0094 183.965 2.36108
86.0944 206.011 2.49855
86.1794 194.288 2.42642
86.2644 184.301 2.36323
86.3494 182.6 2.3523
86.4344 177.015 2.31605
86.5194 177.425 2.31873
86.6044 174.756 2.30123
86.6894 177.355 2.31827
86.7744 177.466 2.319
86.8594 180.963 2.34174
86.9444 178.214 2.32388
87.0294 175.143 2.30377
87.1144 170.829 2.27522
87.1994 172.921 2.28911
87.2844 173.169 2.29075
87.3694 173.529 2.29313
87.4544 174.044 2.29653
87.5394 173.09 2.29023
87.6244 181.457 2.34493
87.7094 190.964 2.40558
87.7944 183.984 2.3612
87.8794 184.386 2.36378
87.9644 179.183 2.33019
88.0494 176.294 2.31133
88.1344 174.304 2.29825
88.2194 176.262 2.31112
88.3044 175.399 2.30546
88.3894 177.93 2.32203
88.4744 189.194 2.3944
88.5594 188.305 2.38877
88.6444 174.894 2.30214
88.7294 176.686 2.3139
88.8144 186.888 2.37977
88.8994 224.165 2.60632
88.9844 183.534 2.35831
89.0694 182.828 2.35377
89.1544 177.94 2.3221
89.2394 183.687 2.35929
89.3244 196.526 2.44035
89.4094 189.471 2.39615
89.4944 178.89 2.32828
89.5794 176.712 2.31407
89.6644 178.402 2.3251
89.7494 171.103 2.27704
89.8344 177.147 2.31691
89.9194 182.056 2.3488
90.0044 177.724 2.32069
90.0894 177.449 2.31889
90.1744 176.341 2.31164
90.2594 181.631 2.34606
90.3444 183.233 2.35638
90.4294 182.831 2.35379
90.5144 179.343 2.33123
90.5994 180.648 2.33969
90.6844 178.775 2.32754
90.7694 181.136 2.34285
90.8544 179.868 2.33464
90.9394 192.246 2.41364
91.0244 203.099 2.48083
91.1094 230.732 2.64422
91.1944 202.118 2.47483
91.2794 194.678 2.42885
91.3644 198.835 2.45465
91.4494 220.16 2.58293
91.5344 186.182 2.37526
91.6194 178.768 2.32749
91.7044 177.119 2.31673
91.7894 178.365 2.32487
91.8744 177.489 2.31915
91.9594 178.033 2.3227
92.0444 179.113 2.32973
92.1294 182.802 2.3536
92.2144 182.651 2.35263
92.2994 220.571 2.58533
92.3844 257.636 2.79413
92.4694 207.686 2.50869
92.5544 187.896 2.38617
92.6394 190.246 2.40105
92.7244 185.948 2.37377
92.8094 188.754 2.39162
92.8944 201.876 2.47335
92.9794 223.629 2.6032
93.0644 206.015 2.49858
93.1494 205.702 2.49668
93.2344 215.878 2.55769
93.3194 216.581 2.56185
93.4044 205.818 2.49738
93.4894 202.653 2.4781
93.5744 194.464 2.42752
93.6594 188.663 2.39104
93.7444 186.097 2.37472
93.8294 198.761 2.45419
93.9144 223.053 2.59984
93.9994 187.346 2.38268
94.0844 180.371 2.3379
94.1694 180.383 2.33798
94.2544 183.227 2.35634
94.3394 182.118 2.3492
94.4244 177.594 2.31983
94.5094 179.125 2.32981
94.5944 179.912 2.33493
94.6794 178.088 2.32306
94.7644 179.108 2.3297
94.8494 194.104 2.42527
94.9344 219.289 2.57781
95.0194 204.146 2.48722
95.1044 195.242 2.43237
95.1894 180.993 2.34193
95.2744 179.384 2.33149
95.3594 180.721 2.34017
95.4444 172.34 2.28526
95.5294 175.907 2.30879
95.6144 175.674 2.30726
95.6994 176.227 2.31089
95.7844 175.452 2.3058
95.8694 178.438 2.32534
95.9544 181.043 2.34225
96.0394 206.839 2.50357
96.1244 190.534 2.40287
96.2094 181.586 2.34577
96.2944 173.999 2.29623
96.3794 176.031 2.30961
96.4644 177.679 2.32039
96.5494 178.707 2.3271
96.6344 173.328 2.2918
96.7194 177.044 2.31624
96.8044 176.802 2.31466
96.8894 179.754 2.3339
96.9744 177.482 2.3191
97.0594 175.684 2.30733
97.1444 173.718 2.29438
97.2294 172.118 2.28379
97.3144 176.058 2.30978
97.3994 175.148 2.3038
97.4844 175.894 2.30871
97.5694 171.553 2.28004
97.6544 176.017 2.30951
97.7394 178.794 2.32766
97.8244 177.692 2.32048
97.9094 174.897 2.30215
97.9944 175.99 2.30933
98.0794 175.704 2.30746
98.1644 171.386 2.27893
98.2494 172.641 2.28726
98.3344 179.885 2.33475
98.4194 172.639 2.28724
98.5044 173.768 2.29471
98.5894 170.807 2.27508
98.6744 176.618 2.31345
98.7594 189.99 2.39943
98.8444 241.203 2.70355
98.9294 202.683 2.47828
99.0144 185.36 2.37001
99.0994 176.715 2.31409
99.1844 179.492 2.3322
99.2694 173.758 2.29464
99.3544 176.376 2.31187
99.4394 175.385 2.30536
99.5244 181.028 2.34215
99.6094 196.905 2.44271
99.6944 226.221 2.61824
99.7794 190.819 2.40466
99.8644 184.754 2.36614
99.9494 180.01 2.33556
100.034 178.443 2.32537
100.119 174.481 2.29941
100.204 176.284 2.31127
100.289 177.238 2.31751
100.374 180.289 2.33737
100.459 193.831 2.42356
100.544 185.081 2.36823
100.629 185.45 2.37059
100.714 191.404 2.40834
100.799 180.29 2.33738
100.884 175.774 2.30792
100.969 180.227 2.33697
101.054 181.074 2.34245
101.139 180.397 2.33807
101.224 180.884 2.34122
101.309 193.692 2.42269
101.394 200.966 2.46777
101.479 186.43 2.37684
101.564 188.139 2.38772
101.649 189.375 2.39554
101.734 187.626 2.38446
101.819 183.789 2.35995
101.904 183.335 2.35703
101.989 188.6 2.39064
102.074 182.078 2.34894
102.159 190.821 2.40467
102.244 241.649 2.70605
102.329 269.235 2.85633
102.414 212.156 2.53554
102.499 200.974 2.46782
102.584 199.133 2.45649
102.669 195.776 2.4357
102.754 190.73 2.4041
102.839 190.513 2.40273
102.924 185.401 2.37028
103.009 181.825 2.3473
103.094 185.513 2.37099
103.179 183.648 2.35904
103.264 185.254 2.36934
103.349 189.684 2.3975
103.434 191.167 2.40685
103.519 189.737 2.39783
103.604 188.636 2.39086
103.689 184.741 2.36605
103.774 184.93 2.36726
103.859 180.826 2.34085
103.944 181.616 2.34595
104.029 177.678 2.32038
104.114 181.723 2.34665
104.199 180.909 2.34139
104.284 184.932 2.36728
104.369 177.727 2.3207
104.454 183.699 2.35937
104.539 179.86 2.33459
104.624 177.426 2.31874
104.709 176.687 2.3139
104.794 179.734 2.33377
104.879 182.22 2.34985
104.964 179.346 2.33125
105.049 180.726 2.3402
105.134 182.407 2.35106
105.219 181.315 2.34401
105.304 180.672 2.33985
105.389 180.185 2.33669
105.474 184.616 2.36525
105.559 179.424 2.33175
105.644 181.28 2.34378
105.729 188.453 2.3897
105.814 197.084 2.44382
105.899 190.832 2.40475
105.984 189.208 2.39449
106.069 189.634 2.39718
106.154 185.507 2.37095
106.239 182.826 2.35376
106.324 190.968 2.4056
106.409 220.218 2.58327
106.494 201.56 2.47141
106.579 189.78 2.39811
106.664 187.433 2.38323
106.749 184.435 2.36409
106.834 182.303 2.35039
106.919 188.657 2.391
107.004 187.735 2.38515
107.089 194.23 2.42606
107.174 191.559 2.40932
107.259 185.352 2.36996
107.344 185.47 2.37072
107.429 182.894 2.35419
107.514 184.137 2.36218
107.599 188.206 2.38814
107.684 183.389 2.35738
107.769 186.268 2.37581
107.854 196.021 2.43722
107.939 193.508 2.42154
108.024 200.444 2.46456
108.109 247.073 2.73625
108.194 207.979 2.51046
108.279 191.502 2.40896
108.364 196.415 2.43967
108.449 224.703 2.60944
108.534 199.474 2.45859
108.619 186.534 2.37751
108.704 182.436 2.35124
108.789 183.81 2.36008
108.874 182.034 2.34866
108.959 182.792 2.35354
109.044 181.782 2.34703
109.129 181.412 2.34464
109.214 182.33 2.35057
109.299 182.612 2.35238
109.384 197.492 2.44635
109.469 199.286 2.45743
109.554 195.51 2.43404
109.639 189.787 2.39815
109.724 184.173 2.36241
109.809 183.507 2.35814
109.894 183.072 2.35534
109.979 187.254 2.38209
110.064 201.404 2.47046
110.149 206.834 2.50354
110.234 195.651 2.43492
110.319 199.382 2.45803
110.404 196.419 2.43969
110.489 191.115 2.40652
110.574 191.532 2.40915
110.659 198.612 2.45328
110.744 198.248 2.45102
110.829 204.392 2.48871
110.914 193.613 2.4222
110.999 201.137 2.46882
111.084 205.314 2.49432
111.169 202.813 2.47908
111.254 258.172 2.79704
111.339 281.79 2.92217
111.424 216.204 2.55961
111.509 193.883 2.42389
111.594 184.488 2.36443
111.679 182.546 2.35195
111.764 183.202 2.35618
111.849 184.666 2.36557
111.934 193.697 2.42273
112.019 187.39 2.38296
112.104 186.01 2.37416
112.189 184.322 2.36337
112.274 185.021 2.36785
112.359 185.325 2.36979
112.444 182.352 2.3507
112.529 179.367 2.33139
112.614 179.843 2.33448
112.699 176.743 2.31427
112.784 179.918 2.33497
112.869 181.694 2.34646
112.954 179.67 2.33335
113.039 179.523 2.3324
113.124 182.44 2.35127
113.209 180.826 2.34085
113.294 179.569 2.3327
113.379 179.21 2.33037
113.464 182.407 2.35106
113.549 181.087 2.34254
113.634 179.8 2.3342
113.719 182.423 2.35116
113.804 180.45 2.33841
113.889 179.884 2.33474
113.974 181.94 2.34805
114.059 180.929 2.34152
114.144 180.97 2.34178
114.229 180.363 2.33785
114.314 182.452 2.35135
114.399 179.052 2.32934
114.484 182.81 2.35366
114.569 188.553 2.39034
114.654 190.353 2.40173
114.739 184.449 2.36418
114.824 186.547 2.37759
114.909 183.036 2.35511
114.994 182.689 2.35288
115.079 182.582 2.35219
115.164 183.794 2.35998
115.249 178.477 2.3256
115.334 182.55 2.35198
115.419 180.251 2.33712
115.504 193.628 2.42229
115.589 198.124 2.45026
115.674 193.926 2.42416
115.759 188.306 2.38877
115.844 184.67 2.3656
115.929 181.762 2.3469
116.014 181.198 2.34326
116.099 178.372 2.32491
116.184 177.55 2.31955
116.269 182.012 2.34851
116.354 187.166 2.38153
116.439 189.566 2.39675
116.524 190.142 2.40039
116.609 182.967 2.35467
116.694 186.032 2.37431
116.779 184.505 2.36455
116.864 188.109 2.38752
116.949 196.867 2.44247
117.034 215.096 2.55305
117.119 206.007 2.49853
117.204 192.438 2.41484
117.289 185 2.36771
117.374 186.067 2.37453
117.459 187.2 2.38175
117.544 188.135 2.38769
117.629 184.129 2.36213
117.714 182.847 2.3539
117.799 182.657 2.35267
117.884 185.326 2.3698
117.969 187.905 2.38623
118.054 185.295 2.3696
118.139 188.433 2.38958
118.224 182.492 2.35161
118.309 187.464 2.38343
118.394 186.207 2.37542
118.479 189.955 2.39921
118.564 192.887 2.41766
118.649 208.203 2.51181
118.734 216.219 2.55971
118.819 197.588 2.44694
118.904 192.674 2.41632
118.989 190.144 2.4004
119.074 193.386 2.42078
119.159 196.281 2.43883
119.244 211.902 2.53402
119.329 205.061 2.49278
119.414 199.834 2.46081
119.499 195.717 2.43533
119.584 196.535 2.44041
119.669 191.069 2.40623
119.754 188.972 2.393
119.839 186.557 2.37766
119.924 185.571 2.37136
120.009 188.729 2.39146
120.094 188.539 2.39025
120.179 189.725 2.39776
120.264 202.228 2.47551
120.349 200.67 2.46595
120.434 190.125 2.40028
120.519 188.44 2.38963
120.604 188.64 2.39089
120.689 185.437 2.37051
120.774 184.089 2.36188
120.859 184.941 2.36733
120.944 184.943 2.36734
121.029 183.569 2.35853
121.114 185.122 2.36849
121.199 196.095 2.43768
121.284 197.305 2.44519
121.369 199.783 2.4605
121.454 200.556 2.46525
121.539 197.037 2.44352
121.624 194.729 2.42917
121.709 195.924 2.43662
121.794 191.724 2.41036
121.879 192.215 2.41344
121.964 187.69 2.38486
122.049 187.582 2.38418
122.134 188.606 2.39067
122.219 187.279 2.38225
122.304 188.029 2.38701
122.389 186.845 2.37949
122.474 189.439 2.39595
122.559 187.385 2.38292
122.644 190.393 2.40197
122.729 193.201 2.41962
122.814 195.032 2.43106
122.899 192.276 2.41382
122.984 191.352 2.40802
123.069 189.656 2.39732
123.154 188.305 2.38877
123.239 188.586 2.39055
123.324 185.584 2.37144
123.409 185.409 2.37033
123.494 187.843 2.38584
123.579 186.159 2.37511
123.664 189.19 2.39437
123.749 194.705 2.42902
123.834 193.408 2.42092
123.919 192.64 2.41611
124.004 188.76 2.39165
124.089 190.905 2.4052
124.174 187.771 2.38538
124.259 187.178 2.38161
124.344 186.542 2.37756
124.429 185.186 2.3689
124.514 188.006 2.38687
124.599 189.483 2.39623
124.684 186.069 2.37454
124.769 186.407 2.3767
124.854 185.472 2.37073
124.939 188.696 2.39124
124.99 192.699 2.41648